post_id,subreddit,author,created_utc,title,url,upvotes,num_comments,flair,gpa_unweighted,gpa_weighted,sat_total,sat_math,sat_reading,act_composite,ap_count,is_ib,ib_score,class_rank,class_size,class_rank_percentile,gender,ethnicity,first_generation,state,leadership_mentions,sports_participant,clubs_count,intended_major,application_round,num_decisions,decisions_json,has_acceptances,has_rejections,has_waitlists,text_length,has_gpa,has_test_scores,has_rigor,has_decisions,data_completeness
demo_000000,collegeresults,Student2225,1755831973,College Results - Average Profile,/r/collegeresults/comments/demo_0,327,183,,3.7,,1320.0,,,,,False,,,,,Female,Black,False,TX,0,True,0,,,11,"[{""school"": ""Dartmouth"", ""status"": ""accepted""}, {""school"": ""Harvard"", ""status"": ""rejected""}, {""school"": ""USC"", ""status"": ""accepted""}, {""school"": ""Penn State"", ""status"": ""waitlisted""}, {""school"": ""Duke"", ""status"": ""rejected""}, {""school"": ""Stanford"", ""status"": ""waitlisted""}, {""school"": ""University of Texas Austin"", ""status"": ""accepted""}, {""school"": ""Columbia"", ""status"": ""waitlisted""}, {""school"": ""Vanderbilt"", ""status"": ""accepted""}, {""school"": ""UPenn"", ""status"": ""rejected""}, {""school"": ""Yale"", ""status"": ""rejected""}]",True,True,True,481,True,True,False,True,3
demo_000001,collegeresults,Student5204,1738901173,College Results - Average Profile,/r/collegeresults/comments/demo_1,54,79,Results,3.71,,1537.0,,,,,False,,,,,Female,White,False,IL,1,True,0,,,8,"[{""school"": ""USC"", ""status"": ""rejected""}, {""school"": ""UCLA"", ""status"": ""accepted""}, {""school"": ""NYU"", ""status"": ""accepted""}, {""school"": ""Brown"", ""status"": ""rejected""}, {""school"": ""Harvard"", ""status"": ""rejected""}, {""school"": ""Cornell"", ""status"": ""rejected""}, {""school"": ""Ohio State"", ""status"": ""accepted""}, {""school"": ""Rice"", ""status"": ""accepted""}]",True,True,False,385,True,True,False,True,3
demo_000002,collegeresults,Student9749,1744427173,College Results - Weak Profile,/r/collegeresults/comments/demo_2,127,47,Discussion,3.57,,1213.0,,,,,False,,,,,Female,Black,False,TX,0,True,0,,,8,"[{""school"": ""Yale"", ""status"": ""rejected""}, {""school"": ""Georgia Tech"", ""status"": ""rejected""}, {""school"": ""Ohio State"", ""status"": ""rejected""}, {""school"": ""Cornell"", ""status"": ""accepted""}, {""school"": ""Duke"", ""status"": ""rejected""}, {""school"": ""UCLA"", ""status"": ""accepted""}, {""school"": ""Boston College"", ""status"": ""accepted""}, {""school"": ""Stanford"", ""status"": ""rejected""}]",True,True,False,412,True,True,False,True,3
demo_000003,collegeresults,Student4310,1754622373,College Results - Weak Profile,/r/collegeresults/comments/demo_3,455,162,Discussion,3.67,,1318.0,,,,,False,,,,,Female,Asian,False,FL,0,True,0,,,9,"[{""school"": ""Carnegie Mellon"", ""status"": ""rejected""}, {""school"": ""UC Berkeley"", ""status"": ""waitlisted""}, {""school"": ""Harvard"", ""status"": ""rejected""}, {""school"": ""Cornell"", ""status"": ""accepted""}, {""school"": ""University of Michigan"", ""status"": ""rejected""}, {""school"": ""MIT"", ""status"": ""rejected""}, {""school"": ""USC"", ""status"": ""accepted""}, {""school"": ""Penn State"", ""status"": ""accepted""}, {""school"": ""UNC Chapel Hill"", ""status"": ""rejected""}]",True,True,True,462,True,True,False,True,3
demo_000004,collegeresults,Student5874,1755140773,College Results - Average Profile,/r/collegeresults/comments/demo_4,228,48,,3.73,,,,,32.0,,False,,,,,Female,Black,False,NY,0,True,0,,,15,"[{""school"": ""University of Texas Austin"", ""status"": ""accepted""}, {""school"": ""Brown"", ""status"": ""accepted""}, {""school"": ""MIT"", ""status"": ""rejected""}, {""school"": ""Duke"", ""status"": ""accepted""}, {""school"": ""Penn State"", ""status"": ""rejected""}, {""school"": ""Carnegie Mellon"", ""status"": ""accepted""}, {""school"": ""Vanderbilt"", ""status"": ""waitlisted""}, {""school"": ""Dartmouth"", ""status"": ""rejected""}, {""school"": ""Stanford"", ""status"": ""rejected""}, {""school"": ""NYU"", ""status"": ""rejected""}, {""school"": ""Rice"", ""status"": ""accepted""}, {""school"": ""University of Michigan"", ""status"": ""accepted""}, {""school"": ""Boston College"", ""status"": ""rejected""}, {""school"": ""UCLA"", ""status"": ""rejected""}, {""school"": ""Princeton"", ""status"": ""rejected""}]",True,True,True,604,True,True,False,True,3
demo_000005,collegeresults,Student4583,1738469173,College Results - Strong Profile,/r/collegeresults/comments/demo_5,177,49,,3.87,,,,,36.0,,False,,,,,Male,Hispanic,False,FL,0,True,0,,,6,"[{""school"": ""UNC Chapel Hill"", ""status"": ""accepted""}, {""school"": ""Ohio State"", ""status"": ""accepted""}, {""school"": ""Boston College"", ""status"": ""accepted""}, {""school"": ""Harvard"", ""status"": ""waitlisted""}, {""school"": ""Carnegie Mellon"", ""status"": ""accepted""}, {""school"": ""Columbia"", ""status"": ""rejected""}]",True,True,True,403,True,True,False,True,3
demo_000006,collegeresults,Student1216,1730779573,College Results - Average Profile,/r/collegeresults/comments/demo_6,259,14,Discussion,3.7,,,,,36.0,,False,,,,,Male,Hispanic,False,FL,1,False,0,,,5,"[{""school"": ""NYU"", ""status"": ""rejected""}, {""school"": ""Rice"", ""status"": ""rejected""}, {""school"": ""Columbia"", ""status"": ""accepted""}, {""school"": ""Yale"", ""status"": ""accepted""}, {""school"": ""USC"", ""status"": ""accepted""}]",True,True,False,329,True,True,False,True,3
demo_000007,collegeresults,Student2246,1746500773,College Results - Weak Profile,/r/collegeresults/comments/demo_7,226,97,Results,3.75,,,,,28.0,,False,,,,,Male,White,False,IL,1,False,0,,,15,"[{""school"": ""Brown"", ""status"": ""rejected""}, {""school"": ""Dartmouth"", ""status"": ""rejected""}, {""school"": ""UPenn"", ""status"": ""rejected""}, {""school"": ""Notre Dame"", ""status"": ""accepted""}, {""school"": ""Vanderbilt"", ""status"": ""accepted""}, {""school"": ""Duke"", ""status"": ""rejected""}, {""school"": ""University of Virginia"", ""status"": ""rejected""}, {""school"": ""University of Texas Austin"", ""status"": ""rejected""}, {""school"": ""Cornell"", ""status"": ""rejected""}, {""school"": ""Penn State"", ""status"": ""rejected""}, {""school"": ""MIT"", ""status"": ""rejected""}, {""school"": ""USC"", ""status"": ""accepted""}, {""school"": ""NYU"", ""status"": ""rejected""}, {""school"": ""UNC Chapel Hill"", ""status"": ""accepted""}, {""school"": ""Stanford"", ""status"": ""rejected""}]",True,True,False,562,True,True,False,True,3
demo_000008,collegeresults,Student7254,1741575973,College Results - Average Profile,/r/collegeresults/comments/demo_8,272,31,Discussion,3.82,,1474.0,,,,,False,,,,,Female,White,False,NC,0,False,0,,,15,"[{""school"": ""Brown"", ""status"": ""accepted""}, {""school"": ""University of Michigan"", ""status"": ""rejected""}, {""school"": ""Penn State"", ""status"": ""waitlisted""}, {""school"": ""Northwestern"", ""status"": ""accepted""}, {""school"": ""UNC Chapel Hill"", ""status"": ""rejected""}, {""school"": ""Boston College"", ""status"": ""accepted""}, {""school"": ""Carnegie Mellon"", ""status"": ""rejected""}, {""school"": ""MIT"", ""status"": ""rejected""}, {""school"": ""University of Virginia"", ""status"": ""rejected""}, {""school"": ""Ohio State"", ""status"": ""rejected""}, {""school"": ""USC"", ""status"": ""accepted""}, {""school"": ""Yale"", ""status"": ""rejected""}, {""school"": ""Princeton"", ""status"": ""rejected""}, {""school"": ""Columbia"", ""status"": ""accepted""}, {""school"": ""Vanderbilt"", ""status"": ""rejected""}]",True,True,True,597,True,True,False,True,3
demo_000009,collegeresults,Student4832,1735704373,College Results - Weak Profile,/r/collegeresults/comments/demo_9,460,105,Discussion,3.71,,,,,,,False,,,,,Female,White,False,MA,0,False,0,,,11,"[{""school"": ""UPenn"", ""status"": ""accepted""}, {""school"": ""Stanford"", ""status"": ""rejected""}, {""school"": ""Yale"", ""status"": ""rejected""}, {""school"": ""Vanderbilt"", ""status"": ""rejected""}, {""school"": ""Northwestern"", ""status"": ""rejected""}, {""school"": ""Carnegie Mellon"", ""status"": ""accepted""}, {""school"": ""Brown"", ""status"": ""rejected""}, {""school"": ""USC"", ""status"": ""rejected""}, {""school"": ""UCLA"", ""status"": ""accepted""}, {""school"": ""Columbia"", ""status"": ""rejected""}, {""school"": ""Boston College"", ""status"": ""rejected""}]",True,True,False,475,True,False,False,True,2
demo_000010,collegeresults,Student6569,1759979173,College Results - Weak Profile,/r/collegeresults/comments/demo_10,133,104,Discussion,3.3,,,,,,,False,,,,,Male,Hispanic,False,IL,1,True,0,,,13,"[{""school"": ""UNC Chapel Hill"", ""status"": ""rejected""}, {""school"": ""Yale"", ""status"": ""rejected""}, {""school"": ""Harvard"", ""status"": ""rejected""}, {""school"": ""Notre Dame"", ""status"": ""waitlisted""}, {""school"": ""Cornell"", ""status"": ""waitlisted""}, {""school"": ""Ohio State"", ""status"": ""rejected""}, {""school"": ""Duke"", ""status"": ""rejected""}, {""school"": ""University of Michigan"", ""status"": ""waitlisted""}, {""school"": ""UPenn"", ""status"": ""accepted""}, {""school"": ""University of Texas Austin"", ""status"": ""accepted""}, {""school"": ""UCLA"", ""status"": ""accepted""}, {""school"": ""Rice"", ""status"": ""waitlisted""}, {""school"": ""Dartmouth"", ""status"": ""rejected""}]",True,True,True,536,True,False,False,True,2
demo_000011,collegeresults,Student5869,1740197173,College Results - Weak Profile,/r/collegeresults/comments/demo_11,495,173,Discussion,3.31,,,,,,,False,,,,,Female,White,False,TX,0,True,0,,,10,"[{""school"": ""University of Virginia"", ""status"": ""accepted""}, {""school"": ""USC"", ""status"": ""rejected""}, {""school"": ""Columbia"", ""status"": ""rejected""}, {""school"": ""Georgia Tech"", ""status"": ""waitlisted""}, {""school"": ""Stanford"", ""status"": ""rejected""}, {""school"": ""UPenn"", ""status"": ""accepted""}, {""school"": ""University of Texas Austin"", ""status"": ""rejected""}, {""school"": ""Princeton"", ""status"": ""rejected""}, {""school"": ""NYU"", ""status"": ""rejected""}, {""school"": ""UC Berkeley"", ""status"": ""accepted""}]",True,True,True,485,True,False,False,True,2
demo_000012,collegeresults,Student4058,1748919973,College Results - Average Profile,/r/collegeresults/comments/demo_12,413,94,,3.72,,1596.0,,,,,False,,,,,Female,Asian,False,GA,1,True,0,,,11,"[{""school"": ""Harvard"", ""status"": ""rejected""}, {""school"": ""UNC Chapel Hill"", ""status"": ""accepted""}, {""school"": ""USC"", ""status"": ""rejected""}, {""school"": ""Carnegie Mellon"", ""status"": ""waitlisted""}, {""school"": ""Cornell"", ""status"": ""rejected""}, {""school"": ""Brown"", ""status"": ""accepted""}, {""school"": ""Princeton"", ""status"": ""accepted""}, {""school"": ""Stanford"", ""status"": ""accepted""}, {""school"": ""Rice"", ""status"": ""accepted""}, {""school"": ""Duke"", ""status"": ""accepted""}, {""school"": ""Vanderbilt"", ""status"": ""accepted""}]",True,True,True,478,True,True,False,True,3
demo_000013,collegeresults,Student3883,1749697573,College Results - Weak Profile,/r/collegeresults/comments/demo_13,297,109,,3.34,,1448.0,,,,,False,,,,,Female,White,False,NC,0,False,0,,,7,"[{""school"": ""Carnegie Mellon"", ""status"": ""rejected""}, {""school"": ""Columbia"", ""status"": ""rejected""}, {""school"": ""University of Texas Austin"", ""status"": ""rejected""}, {""school"": ""Princeton"", ""status"": ""rejected""}, {""school"": ""NYU"", ""status"": ""rejected""}, {""school"": ""Ohio State"", ""status"": ""accepted""}, {""school"": ""Harvard"", ""status"": ""rejected""}]",True,True,False,426,True,True,False,True,3
demo_000014,collegeresults,Student1023,1749438373,College Results - Weak Profile,/r/collegeresults/comments/demo_14,422,38,,3.85,,,,,,,False,,,,,Female,Black,False,FL,1,False,0,,,7,"[{""school"": ""NYU"", ""status"": ""accepted""}, {""school"": ""University of Texas Austin"", ""status"": ""rejected""}, {""school"": ""Harvard"", ""status"": ""rejected""}, {""school"": ""Stanford"", ""status"": ""accepted""}, {""school"": ""Carnegie Mellon"", ""status"": ""rejected""}, {""school"": ""Rice"", ""status"": ""rejected""}, {""school"": ""Dartmouth"", ""status"": ""waitlisted""}]",True,True,True,397,True,False,False,True,2
demo_000015,collegeresults,Student8414,1730343973,College Results - Average Profile,/r/collegeresults/comments/demo_15,213,164,Results,3.68,,,,,33.0,,False,,,,,Female,Asian,False,MA,0,True,0,,,15,"[{""school"": ""Rice"", ""status"": ""accepted""}, {""school"": ""Stanford"", ""status"": ""rejected""}, {""school"": ""Northwestern"", ""status"": ""accepted""}, {""school"": ""UC Berkeley"", ""status"": ""rejected""}, {""school"": ""Cornell"", ""status"": ""accepted""}, {""school"": ""Ohio State"", ""status"": ""waitlisted""}, {""school"": ""Notre Dame"", ""status"": ""rejected""}, {""school"": ""USC"", ""status"": ""waitlisted""}, {""school"": ""Carnegie Mellon"", ""status"": ""rejected""}, {""school"": ""UCLA"", ""status"": ""rejected""}, {""school"": ""University of Michigan"", ""status"": ""accepted""}, {""school"": ""Penn State"", ""status"": ""rejected""}, {""school"": ""Columbia"", ""status"": ""accepted""}, {""school"": ""Princeton"", ""status"": ""rejected""}, {""school"": ""Duke"", ""status"": ""accepted""}]",True,True,True,579,True,True,False,True,3
demo_000016,collegeresults,Student5900,1734753973,College Results - Average Profile,/r/collegeresults/comments/demo_16,191,124,Results,3.78,,,,,33.0,,False,,,,,Female,Black,False,NY,1,False,0,,,12,"[{""school"": ""Dartmouth"", ""status"": ""waitlisted""}, {""school"": ""Notre Dame"", ""status"": ""rejected""}, {""school"": ""Princeton"", ""status"": ""accepted""}, {""school"": ""University of Michigan"", ""status"": ""accepted""}, {""school"": ""Boston College"", ""status"": ""accepted""}, {""school"": ""Ohio State"", ""status"": ""rejected""}, {""school"": ""UCLA"", ""status"": ""accepted""}, {""school"": ""MIT"", ""status"": ""rejected""}, {""school"": ""University of Texas Austin"", ""status"": ""rejected""}, {""school"": ""Vanderbilt"", ""status"": ""rejected""}, {""school"": ""UC Berkeley"", ""status"": ""waitlisted""}, {""school"": ""Duke"", ""status"": ""waitlisted""}]",True,True,True,528,True,True,False,True,3
demo_000017,collegeresults,Student7714,1759979173,College Results - Weak Profile,/r/collegeresults/comments/demo_17,238,31,,3.48,,1406.0,,,,,False,,,,,Male,Asian,False,IL,1,False,0,,,9,"[{""school"": ""Boston College"", ""status"": ""rejected""}, {""school"": ""UCLA"", ""status"": ""accepted""}, {""school"": ""Cornell"", ""status"": ""rejected""}, {""school"": ""Ohio State"", ""status"": ""rejected""}, {""school"": ""USC"", ""status"": ""rejected""}, {""school"": ""Columbia"", ""status"": ""rejected""}, {""school"": ""Harvard"", ""status"": ""rejected""}, {""school"": ""UNC Chapel Hill"", ""status"": ""rejected""}, {""school"": ""Brown"", ""status"": ""rejected""}]",True,True,False,427,True,True,False,True,3
demo_000018,collegeresults,Student5454,1733198773,College Results - Weak Profile,/r/collegeresults/comments/demo_18,445,170,,3.57,,,,,35.0,,False,,,,,Male,Asian,False,FL,0,False,0,,,13,"[{""school"": ""Vanderbilt"", ""status"": ""rejected""}, {""school"": ""Notre Dame"", ""status"": ""rejected""}, {""school"": ""Yale"", ""status"": ""rejected""}, {""school"": ""Princeton"", ""status"": ""rejected""}, {""school"": ""University of Michigan"", ""status"": ""rejected""}, {""school"": ""Harvard"", ""status"": ""rejected""}, {""school"": ""USC"", ""status"": ""rejected""}, {""school"": ""Duke"", ""status"": ""waitlisted""}, {""school"": ""Dartmouth"", ""status"": ""rejected""}, {""school"": ""Brown"", ""status"": ""accepted""}, {""school"": ""UNC Chapel Hill"", ""status"": ""rejected""}, {""school"": ""MIT"", ""status"": ""rejected""}, {""school"": ""NYU"", ""status"": ""rejected""}]",True,True,True,499,True,True,False,True,3
demo_000019,collegeresults,Student6045,1729825573,College Results - Weak Profile,/r/collegeresults/comments/demo_19,84,167,Discussion,3.95,,1222.0,,,,,False,,,,,Male,White,False,IL,1,False,0,,,10,"[{""school"": ""University of Virginia"", ""status"": ""rejected""}, {""school"": ""Boston College"", ""status"": ""rejected""}, {""school"": ""Penn State"", ""status"": ""accepted""}, {""school"": ""Duke"", ""status"": ""accepted""}, {""school"": ""Dartmouth"", ""status"": ""rejected""}, {""school"": ""NYU"", ""status"": ""rejected""}, {""school"": ""Columbia"", ""status"": ""accepted""}, {""school"": ""Georgia Tech"", ""status"": ""rejected""}, {""school"": ""Cornell"", ""status"": ""rejected""}, {""school"": ""Harvard"", ""status"": ""rejected""}]",True,True,False,463,True,True,False,True,3
demo_000020,collegeresults,Student1777,1735963573,College Results - Strong Profile,/r/collegeresults/comments/demo_20,107,185,Discussion,3.89,,,,,35.0,,False,,,,,Male,Hispanic,False,PA,0,False,0,,,15,"[{""school"": ""UPenn"", ""status"": ""accepted""}, {""school"": ""Ohio State"", ""status"": ""accepted""}, {""school"": ""Carnegie Mellon"", ""status"": ""accepted""}, {""school"": ""Penn State"", ""status"": ""rejected""}, {""school"": ""University of Virginia"", ""status"": ""accepted""}, {""school"": ""Georgia Tech"", ""status"": ""accepted""}, {""school"": ""Princeton"", ""status"": ""rejected""}, {""school"": ""Northwestern"", ""status"": ""waitlisted""}, {""school"": ""Notre Dame"", ""status"": ""accepted""}, {""school"": ""UC Berkeley"", ""status"": ""accepted""}, {""school"": ""Columbia"", ""status"": ""accepted""}, {""school"": ""Brown"", ""status"": ""accepted""}, {""school"": ""Harvard"", ""status"": ""rejected""}, {""school"": ""Yale"", ""status"": ""accepted""}, {""school"": ""Stanford"", ""status"": ""rejected""}]",True,True,True,592,True,True,False,True,3
demo_000021,collegeresults,Student9084,1737345973,College Results - Average Profile,/r/collegeresults/comments/demo_21,470,67,Results,3.94,,1411.0,,,,,False,,,,,Female,Asian,False,PA,1,False,0,,,5,"[{""school"": ""Boston College"", ""status"": ""accepted""}, {""school"": ""Princeton"", ""status"": ""waitlisted""}, {""school"": ""Ohio State"", ""status"": ""accepted""}, {""school"": ""Columbia"", ""status"": ""accepted""}, {""school"": ""University of Texas Austin"", ""status"": ""rejected""}]",True,True,True,375,True,True,False,True,3
demo_000022,collegeresults,Student5505,1750561573,College Results - Weak Profile,/r/collegeresults/comments/demo_22,134,132,Discussion,3.66,,,,,,,False,,,,,Female,Asian,False,IL,0,False,0,,,8,"[{""school"": ""Princeton"", ""status"": ""rejected""}, {""school"": ""Cornell"", ""status"": ""accepted""}, {""school"": ""UPenn"", ""status"": ""accepted""}, {""school"": ""Georgia Tech"", ""status"": ""accepted""}, {""school"": ""Northwestern"", ""status"": ""rejected""}, {""school"": ""Yale"", ""status"": ""rejected""}, {""school"": ""Boston College"", ""status"": ""rejected""}, {""school"": ""Dartmouth"", ""status"": ""accepted""}]",True,True,False,438,True,False,False,True,2
demo_000023,collegeresults,Student9759,1729393573,College Results - Weak Profile,/r/collegeresults/comments/demo_23,155,179,,3.55,,,,,,,False,,,,,Female,White,False,OH,1,False,0,,,11,"[{""school"": ""Dartmouth"", ""status"": ""accepted""}, {""school"": ""Rice"", ""status"": ""accepted""}, {""school"": ""Harvard"", ""status"": ""rejected""}, {""school"": ""Georgia Tech"", ""status"": ""waitlisted""}, {""school"": ""USC"", ""status"": ""rejected""}, {""school"": ""Duke"", ""status"": ""accepted""}, {""school"": ""Ohio State"", ""status"": ""rejected""}, {""school"": ""UNC Chapel Hill"", ""status"": ""accepted""}, {""school"": ""UCLA"", ""status"": ""rejected""}, {""school"": ""Notre Dame"", ""status"": ""accepted""}, {""school"": ""Columbia"", ""status"": ""rejected""}]",True,True,True,471,True,False,False,True,2
demo_000024,collegeresults,Student3452,1738901173,College Results - Weak Profile,/r/collegeresults/comments/demo_24,374,16,Discussion,3.74,,,,,28.0,,False,,,,,Male,White,False,NC,1,False,0,,,10,"[{""school"": ""Princeton"", ""status"": ""accepted""}, {""school"": ""UNC Chapel Hill"", ""status"": ""rejected""}, {""school"": ""Yale"", ""status"": ""rejected""}, {""school"": ""Columbia"", ""status"": ""rejected""}, {""school"": ""Georgia Tech"", ""status"": ""rejected""}, {""school"": ""Notre Dame"", ""status"": ""rejected""}, {""school"": ""University of Michigan"", ""status"": ""rejected""}, {""school"": ""Vanderbilt"", ""status"": ""rejected""}, {""school"": ""Stanford"", ""status"": ""rejected""}, {""school"": ""UCLA"", ""status"": ""accepted""}]",True,True,False,458,True,True,False,True,3
demo_000025,collegeresults,Student4536,1751339173,College Results - Weak Profile,/r/collegeresults/comments/demo_25,37,93,,3.8,,,,,,,False,,,,,Male,Hispanic,False,IL,0,True,0,,,8,"[{""school"": ""Rice"", ""status"": ""accepted""}, {""school"": ""Northwestern"", ""status"": ""accepted""}, {""school"": ""USC"", ""status"": ""rejected""}, {""school"": ""Brown"", ""status"": ""accepted""}, {""school"": ""UC Berkeley"", ""status"": ""rejected""}, {""school"": ""Dartmouth"", ""status"": ""accepted""}, {""school"": ""Harvard"", ""status"": ""rejected""}, {""school"": ""Princeton"", ""status"": ""rejected""}]",True,True,False,400,True,False,False,True,2
demo_000026,collegeresults,Student8339,1740974773,College Results - Average Profile,/r/collegeresults/comments/demo_26,379,186,Results,3.97,,1408.0,,,,,False,,,,,Male,Asian,False,GA,1,True,0,,,13,"[{""school"": ""University of Virginia"", ""status"": ""accepted""}, {""school"": ""Vanderbilt"", ""status"": ""waitlisted""}, {""school"": ""Northwestern"", ""status"": ""rejected""}, {""school"": ""University of Michigan"", ""status"": ""accepted""}, {""school"": ""USC"", ""status"": ""rejected""}, {""school"": ""NYU"", ""status"": ""accepted""}, {""school"": ""Columbia"", ""status"": ""rejected""}, {""school"": ""Brown"", ""status"": ""rejected""}, {""school"": ""Notre Dame"", ""status"": ""accepted""}, {""school"": ""Boston College"", ""status"": ""rejected""}, {""school"": ""Penn State"", ""status"": ""waitlisted""}, {""school"": ""UNC Chapel Hill"", ""status"": ""accepted""}, {""school"": ""University of Texas Austin"", ""status"": ""rejected""}]",True,True,True,581,True,True,False,True,3
demo_000027,collegeresults,Student8730,1748401573,College Results - Weak Profile,/r/collegeresults/comments/demo_27,34,114,,3.33,,,,,,,False,,,,,Female,White,False,NY,1,False,0,,,12,"[{""school"": ""University of Virginia"", ""status"": ""rejected""}, {""school"": ""NYU"", ""status"": ""accepted""}, {""school"": ""Boston College"", ""status"": ""rejected""}, {""school"": ""Rice"", ""status"": ""rejected""}, {""school"": ""Columbia"", ""status"": ""rejected""}, {""school"": ""UC Berkeley"", ""status"": ""waitlisted""}, {""school"": ""Penn State"", ""status"": ""rejected""}, {""school"": ""Brown"", ""status"": ""rejected""}, {""school"": ""Ohio State"", ""status"": ""accepted""}, {""school"": ""Notre Dame"", ""status"": ""accepted""}, {""school"": ""Cornell"", ""status"": ""rejected""}, {""school"": ""Northwestern"", ""status"": ""rejected""}]",True,True,True,524,True,False,False,True,2
demo_000028,collegeresults,Student4458,1732853173,College Results - Weak Profile,/r/collegeresults/comments/demo_28,404,152,Discussion,3.47,,1513.0,,,,,False,,,,,Female,Asian,False,PA,0,True,0,,,8,"[{""school"": ""Columbia"", ""status"": ""rejected""}, {""school"": ""Duke"", ""status"": ""rejected""}, {""school"": ""Dartmouth"", ""status"": ""rejected""}, {""school"": ""UNC Chapel Hill"", ""status"": ""rejected""}, {""school"": ""Rice"", ""status"": ""rejected""}, {""school"": ""Boston College"", ""status"": ""rejected""}, {""school"": ""Ohio State"", ""status"": ""rejected""}, {""school"": ""Georgia Tech"", ""status"": ""rejected""}]",False,True,False,431,True,True,False,True,3
demo_000029,collegeresults,Student8574,1731729973,College Results - Weak Profile,/r/collegeresults/comments/demo_29,497,37,Results,3.67,,,,,,,False,,,,,Male,Hispanic,False,TX,0,False,0,,,15,"[{""school"": ""USC"", ""status"": ""rejected""}, {""school"": ""Yale"", ""status"": ""rejected""}, {""school"": ""UC Berkeley"", ""status"": ""rejected""}, {""school"": ""Vanderbilt"", ""status"": ""rejected""}, {""school"": ""Princeton"", ""status"": ""rejected""}, {""school"": ""Brown"", ""status"": ""rejected""}, {""school"": ""Penn State"", ""status"": ""rejected""}, {""school"": ""University of Michigan"", ""status"": ""rejected""}, {""school"": ""Columbia"", ""status"": ""rejected""}, {""school"": ""Georgia Tech"", ""status"": ""rejected""}, {""school"": ""Notre Dame"", ""status"": ""rejected""}, {""school"": ""Ohio State"", ""status"": ""rejected""}, {""school"": ""Cornell"", ""status"": ""rejected""}, {""school"": ""University of Texas Austin"", ""status"": ""rejected""}, {""school"": ""Harvard"", ""status"": ""rejected""}]",False,True,False,612,True,False,False,True,2
demo_000030,collegeresults,Student8381,1734321973,College Results - Average Profile,/r/collegeresults/comments/demo_30,20,91,Discussion,3.74,,1238.0,,,,,False,,,,,Female,Asian,False,CA,1,False,0,,,8,"[{""school"": ""Northwestern"", ""status"": ""rejected""}, {""school"": ""MIT"", ""status"": ""rejected""}, {""school"": ""Dartmouth"", ""status"": ""rejected""}, {""school"": ""Rice"", ""status"": ""accepted""}, {""school"": ""Brown"", ""status"": ""accepted""}, {""school"": ""Stanford"", ""status"": ""waitlisted""}, {""school"": ""Duke"", ""status"": ""accepted""}, {""school"": ""Columbia"", ""status"": ""rejected""}]",True,True,True,403,True,True,False,True,3
demo_000031,collegeresults,Student7040,1748142373,College Results - Weak Profile,/r/collegeresults/comments/demo_31,206,97,,3.62,,,,,,,False,,,,,Male,Hispanic,False,FL,0,True,0,,,7,"[{""school"": ""University of Virginia"", ""status"": ""rejected""}, {""school"": ""UNC Chapel Hill"", ""status"": ""accepted""}, {""school"": ""UC Berkeley"", ""status"": ""rejected""}, {""school"": ""Northwestern"", ""status"": ""accepted""}, {""school"": ""Cornell"", ""status"": ""rejected""}, {""school"": ""UPenn"", ""status"": ""rejected""}, {""school"": ""Boston College"", ""status"": ""accepted""}]",True,True,False,449,True,False,False,True,2
demo_000032,collegeresults,Student5048,1751771173,College Results - Weak Profile,/r/collegeresults/comments/demo_32,456,22,Results,3.41,,1423.0,,,,,False,,,,,Female,White,False,PA,1,False,0,,,10,"[{""school"": ""Ohio State"", ""status"": ""accepted""}, {""school"": ""UNC Chapel Hill"", ""status"": ""rejected""}, {""school"": ""Princeton"", ""status"": ""rejected""}, {""school"": ""Boston College"", ""status"": ""accepted""}, {""school"": ""NYU"", ""status"": ""rejected""}, {""school"": ""Yale"", ""status"": ""rejected""}, {""school"": ""Dartmouth"", ""status"": ""accepted""}, {""school"": ""Duke"", ""status"": ""accepted""}, {""school"": ""University of Texas Austin"", ""status"": ""waitlisted""}, {""school"": ""Northwestern"", ""status"": ""rejected""}]",True,True,True,481,True,True,False,True,3
demo_000033,collegeresults,Student1617,1753844773,College Results - Weak Profile,/r/collegeresults/comments/demo_33,312,189,Results,3.59,,,,,,,False,,,,,Female,Black,False,OH,0,True,0,,,12,"[{""school"": ""Princeton"", ""status"": ""rejected""}, {""school"": ""Duke"", ""status"": ""accepted""}, {""school"": ""Northwestern"", ""status"": ""accepted""}, {""school"": ""NYU"", ""status"": ""rejected""}, {""school"": ""USC"", ""status"": ""accepted""}, {""school"": ""University of Virginia"", ""status"": ""accepted""}, {""school"": ""UCLA"", ""status"": ""rejected""}, {""school"": ""Columbia"", ""status"": ""rejected""}, {""school"": ""Cornell"", ""status"": ""accepted""}, {""school"": ""Carnegie Mellon"", ""status"": ""accepted""}, {""school"": ""Georgia Tech"", ""status"": ""waitlisted""}, {""school"": ""Penn State"", ""status"": ""accepted""}]",True,True,True,498,True,False,False,True,2
demo_000034,collegeresults,Student3749,1734062773,College Results - Weak Profile,/r/collegeresults/comments/demo_34,194,195,Discussion,3.88,,,,,,,False,,,,,Female,Black,False,PA,1,False,0,,,14,"[{""school"": ""Penn State"", ""status"": ""rejected""}, {""school"": ""Vanderbilt"", ""status"": ""rejected""}, {""school"": ""Dartmouth"", ""status"": ""accepted""}, {""school"": ""Duke"", ""status"": ""accepted""}, {""school"": ""UNC Chapel Hill"", ""status"": ""rejected""}, {""school"": ""Yale"", ""status"": ""rejected""}, {""school"": ""Rice"", ""status"": ""rejected""}, {""school"": ""Princeton"", ""status"": ""rejected""}, {""school"": ""Northwestern"", ""status"": ""rejected""}, {""school"": ""Boston College"", ""status"": ""rejected""}, {""school"": ""University of Michigan"", ""status"": ""rejected""}, {""school"": ""Brown"", ""status"": ""rejected""}, {""school"": ""USC"", ""status"": ""rejected""}, {""school"": ""Carnegie Mellon"", ""status"": ""rejected""}]",True,True,False,579,True,False,False,True,2
demo_000035,collegeresults,Student2260,1750647973,College Results - Strong Profile,/r/collegeresults/comments/demo_35,370,163,,3.96,,1592.0,,,,,False,,,,,Male,White,False,NY,0,False,0,,,14,"[{""school"": ""Notre Dame"", ""status"": ""accepted""}, {""school"": ""Ohio State"", ""status"": ""waitlisted""}, {""school"": ""USC"", ""status"": ""accepted""}, {""school"": ""Yale"", ""status"": ""waitlisted""}, {""school"": ""NYU"", ""status"": ""accepted""}, {""school"": ""Princeton"", ""status"": ""rejected""}, {""school"": ""Northwestern"", ""status"": ""accepted""}, {""school"": ""Columbia"", ""status"": ""accepted""}, {""school"": ""UPenn"", ""status"": ""accepted""}, {""school"": ""Dartmouth"", ""status"": ""accepted""}, {""school"": ""MIT"", ""status"": ""rejected""}, {""school"": ""UNC Chapel Hill"", ""status"": ""accepted""}, {""school"": ""Brown"", ""status"": ""accepted""}, {""school"": ""Georgia Tech"", ""status"": ""accepted""}]",True,True,True,544,True,True,False,True,3
demo_000036,collegeresults,Student9483,1750043173,College Results - Weak Profile,/r/collegeresults/comments/demo_36,278,200,,3.89,,,,,,,False,,,,,Female,Black,False,NY,1,False,0,,,9,"[{""school"": ""UC Berkeley"", ""status"": ""waitlisted""}, {""school"": ""USC"", ""status"": ""accepted""}, {""school"": ""Columbia"", ""status"": ""accepted""}, {""school"": ""UCLA"", ""status"": ""waitlisted""}, {""school"": ""Vanderbilt"", ""status"": ""rejected""}, {""school"": ""UPenn"", ""status"": ""rejected""}, {""school"": ""Boston College"", ""status"": ""accepted""}, {""school"": ""Georgia Tech"", ""status"": ""rejected""}, {""school"": ""University of Texas Austin"", ""status"": ""rejected""}]",True,True,True,457,True,False,False,True,2
demo_000037,collegeresults,Student7582,1741575973,College Results - Average Profile,/r/collegeresults/comments/demo_37,230,22,Results,3.81,,,,,36.0,,False,,,,,Female,Asian,False,MA,0,False,0,,,5,"[{""school"": ""NYU"", ""status"": ""accepted""}, {""school"": ""Stanford"", ""status"": ""rejected""}, {""school"": ""MIT"", ""status"": ""rejected""}, {""school"": ""Penn State"", ""status"": ""waitlisted""}, {""school"": ""Columbia"", ""status"": ""accepted""}]",True,True,True,351,True,True,False,True,3
demo_000038,collegeresults,Student9014,1746500773,College Results - Average Profile,/r/collegeresults/comments/demo_38,28,31,Results,3.91,,1442.0,,,,,False,,,,,Female,Black,False,NC,1,True,0,,,5,"[{""school"": ""Cornell"", ""status"": ""rejected""}, {""school"": ""Harvard"", ""status"": ""rejected""}, {""school"": ""Notre Dame"", ""status"": ""rejected""}, {""school"": ""Penn State"", ""status"": ""accepted""}, {""school"": ""UCLA"", ""status"": ""rejected""}]",True,True,False,357,True,True,False,True,3
demo_000039,collegeresults,Student2360,1755399973,College Results - Weak Profile,/r/collegeresults/comments/demo_39,306,36,Discussion,3.42,,,,,31.0,,False,,,,,Female,Black,False,TX,0,True,0,,,7,"[{""school"": ""Stanford"", ""status"": ""rejected""}, {""school"": ""University of Virginia"", ""status"": ""rejected""}, {""school"": ""Columbia"", ""status"": ""accepted""}, {""school"": ""University of Texas Austin"", ""status"": ""accepted""}, {""school"": ""Vanderbilt"", ""status"": ""rejected""}, {""school"": ""Penn State"", ""status"": ""rejected""}, {""school"": ""MIT"", ""status"": ""rejected""}]",True,True,False,430,True,True,False,True,3
demo_000040,collegeresults,Student1893,1739937973,College Results - Weak Profile,/r/collegeresults/comments/demo_40,368,165,Results,3.51,,,,,,,False,,,,,Female,Asian,False,OH,0,True,0,,,9,"[{""school"": ""Cornell"", ""status"": ""rejected""}, {""school"": ""Harvard"", ""status"": ""rejected""}, {""school"": ""Princeton"", ""status"": ""rejected""}, {""school"": ""UC Berkeley"", ""status"": ""rejected""}, {""school"": ""Vanderbilt"", ""status"": ""accepted""}, {""school"": ""Stanford"", ""status"": ""rejected""}, {""school"": ""University of Virginia"", ""status"": ""rejected""}, {""school"": ""Columbia"", ""status"": ""waitlisted""}, {""school"": ""Northwestern"", ""status"": ""rejected""}]",True,True,True,455,True,False,False,True,2
demo_000041,collegeresults,Student8353,1756523173,College Results - Weak Profile,/r/collegeresults/comments/demo_41,90,104,Discussion,3.78,,,,,,,False,,,,,Male,Hispanic,False,MA,1,False,0,,,6,"[{""school"": ""Duke"", ""status"": ""accepted""}, {""school"": ""UNC Chapel Hill"", ""status"": ""waitlisted""}, {""school"": ""Rice"", ""status"": ""accepted""}, {""school"": ""UC Berkeley"", ""status"": ""accepted""}, {""school"": ""NYU"", ""status"": ""accepted""}, {""school"": ""Dartmouth"", ""status"": ""rejected""}]",True,True,True,367,True,False,False,True,2
demo_000042,collegeresults,Student9089,1759892773,College Results - Weak Profile,/r/collegeresults/comments/demo_42,218,47,Results,3.81,,1207.0,,,,,False,,,,,Female,White,False,OH,1,False,0,,,13,"[{""school"": ""NYU"", ""status"": ""rejected""}, {""school"": ""UPenn"", ""status"": ""rejected""}, {""school"": ""Harvard"", ""status"": ""rejected""}, {""school"": ""Princeton"", ""status"": ""rejected""}, {""school"": ""Cornell"", ""status"": ""rejected""}, {""school"": ""USC"", ""status"": ""rejected""}, {""school"": ""Yale"", ""status"": ""rejected""}, {""school"": ""Notre Dame"", ""status"": ""rejected""}, {""school"": ""Stanford"", ""status"": ""rejected""}, {""school"": ""UC Berkeley"", ""status"": ""accepted""}, {""school"": ""University of Texas Austin"", ""status"": ""rejected""}, {""school"": ""MIT"", ""status"": ""rejected""}, {""school"": ""UCLA"", ""status"": ""rejected""}]",True,True,False,496,True,True,False,True,3
demo_000043,collegeresults,Student3537,1753844773,College Results - Weak Profile,/r/collegeresults/comments/demo_43,91,50,Results,3.36,,1570.0,,,,,False,,,,,Female,Black,False,FL,1,False,0,,,11,"[{""school"": ""Rice"", ""status"": ""rejected""}, {""school"": ""Cornell"", ""status"": ""rejected""}, {""school"": ""Notre Dame"", ""status"": ""waitlisted""}, {""school"": ""UC Berkeley"", ""status"": ""accepted""}, {""school"": ""UCLA"", ""status"": ""rejected""}, {""school"": ""Georgia Tech"", ""status"": ""rejected""}, {""school"": ""Harvard"", ""status"": ""rejected""}, {""school"": ""Brown"", ""status"": ""rejected""}, {""school"": ""Northwestern"", ""status"": ""rejected""}, {""school"": ""UPenn"", ""status"": ""rejected""}, {""school"": ""Ohio State"", ""status"": ""accepted""}]",True,True,True,473,True,True,False,True,3
demo_000044,collegeresults,Student1542,1758164773,College Results - Average Profile,/r/collegeresults/comments/demo_44,319,178,Discussion,3.81,,1464.0,,,,,False,,,,,Female,Black,False,NC,1,False,0,,,11,"[{""school"": ""University of Michigan"", ""status"": ""accepted""}, {""school"": ""Brown"", ""status"": ""accepted""}, {""school"": ""Boston College"", ""status"": ""accepted""}, {""school"": ""Dartmouth"", ""status"": ""accepted""}, {""school"": ""Northwestern"", ""status"": ""rejected""}, {""school"": ""Duke"", ""status"": ""accepted""}, {""school"": ""University of Texas Austin"", ""status"": ""rejected""}, {""school"": ""UPenn"", ""status"": ""accepted""}, {""school"": ""MIT"", ""status"": ""accepted""}, {""school"": ""Carnegie Mellon"", ""status"": ""accepted""}, {""school"": ""UC Berkeley"", ""status"": ""accepted""}]",True,True,False,521,True,True,False,True,3
demo_000045,collegeresults,Student9538,1735963573,College Results - Weak Profile,/r/collegeresults/comments/demo_45,134,127,,3.58,,1469.0,,,,,False,,,,,Female,White,False,CA,1,False,0,,,6,"[{""school"": ""Columbia"", ""status"": ""rejected""}, {""school"": ""UCLA"", ""status"": ""accepted""}, {""school"": ""University of Virginia"", ""status"": ""rejected""}, {""school"": ""Boston College"", ""status"": ""rejected""}, {""school"": ""Georgia Tech"", ""status"": ""rejected""}, {""school"": ""USC"", ""status"": ""waitlisted""}]",True,True,True,403,True,True,False,True,3
demo_000046,collegeresults,Student8529,1745982373,College Results - Average Profile,/r/collegeresults/comments/demo_46,233,174,,3.72,,,,,36.0,,False,,,,,Male,Asian,False,IL,0,True,0,,,5,"[{""school"": ""Ohio State"", ""status"": ""accepted""}, {""school"": ""MIT"", ""status"": ""rejected""}, {""school"": ""Rice"", ""status"": ""accepted""}, {""school"": ""Yale"", ""status"": ""rejected""}, {""school"": ""Georgia Tech"", ""status"": ""waitlisted""}]",True,True,True,340,True,True,False,True,3
demo_000047,collegeresults,Student3011,1756263973,College Results - Weak Profile,/r/collegeresults/comments/demo_47,450,14,,3.56,,,,,36.0,,False,,,,,Female,White,False,NC,1,True,0,,,13,"[{""school"": ""MIT"", ""status"": ""rejected""}, {""school"": ""UC Berkeley"", ""status"": ""rejected""}, {""school"": ""Ohio State"", ""status"": ""rejected""}, {""school"": ""Harvard"", ""status"": ""rejected""}, {""school"": ""UCLA"", ""status"": ""waitlisted""}, {""school"": ""Boston College"", ""status"": ""accepted""}, {""school"": ""Carnegie Mellon"", ""status"": ""rejected""}, {""school"": ""Rice"", ""status"": ""rejected""}, {""school"": ""Yale"", ""status"": ""rejected""}, {""school"": ""UPenn"", ""status"": ""accepted""}, {""school"": ""Northwestern"", ""status"": ""rejected""}, {""school"": ""University of Texas Austin"", ""status"": ""rejected""}, {""school"": ""Dartmouth"", ""status"": ""accepted""}]",True,True,True,545,True,True,False,True,3
demo_000048,collegeresults,Student6855,1743563173,College Results - Weak Profile,/r/collegeresults/comments/demo_48,93,61,,3.77,,,,,,,False,,,,,Male,Asian,False,MA,0,False,0,,,7,"[{""school"": ""Georgia Tech"", ""status"": ""accepted""}, {""school"": ""Notre Dame"", ""status"": ""waitlisted""}, {""school"": ""MIT"", ""status"": ""rejected""}, {""school"": ""Stanford"", ""status"": ""rejected""}, {""school"": ""UC Berkeley"", ""status"": ""rejected""}, {""school"": ""University of Michigan"", ""status"": ""rejected""}, {""school"": ""Brown"", ""status"": ""waitlisted""}]",True,True,True,427,True,False,False,True,2
demo_000049,collegeresults,Student2278,1750129573,College Results - Weak Profile,/r/collegeresults/comments/demo_49,128,82,Discussion,3.48,,1461.0,,,,,False,,,,,Male,Asian,False,FL,1,False,0,,,13,"[{""school"": ""Vanderbilt"", ""status"": ""rejected""}, {""school"": ""Duke"", ""status"": ""accepted""}, {""school"": ""Notre Dame"", ""status"": ""rejected""}, {""school"": ""Ohio State"", ""status"": ""rejected""}, {""school"": ""Stanford"", ""status"": ""rejected""}, {""school"": ""NYU"", ""status"": ""rejected""}, {""school"": ""USC"", ""status"": ""rejected""}, {""school"": ""University of Michigan"", ""status"": ""rejected""}, {""school"": ""Penn State"", ""status"": ""accepted""}, {""school"": ""University of Texas Austin"", ""status"": ""rejected""}, {""school"": ""Rice"", ""status"": ""rejected""}, {""school"": ""University of Virginia"", ""status"": ""rejected""}, {""school"": ""Columbia"", ""status"": ""rejected""}]",True,True,False,541,True,True,False,True,3
demo_000050,collegeresults,Student6812,1733371573,College Results - Weak Profile,/r/collegeresults/comments/demo_50,185,115,Discussion,3.36,,1224.0,,,,,False,,,,,Male,Asian,False,PA,1,True,0,,,15,"[{""school"": ""Yale"", ""status"": ""rejected""}, {""school"": ""USC"", ""status"": ""accepted""}, {""school"": ""UCLA"", ""status"": ""accepted""}, {""school"": ""Penn State"", ""status"": ""rejected""}, {""school"": ""Princeton"", ""status"": ""rejected""}, {""school"": ""Columbia"", ""status"": ""rejected""}, {""school"": ""Carnegie Mellon"", ""status"": ""accepted""}, {""school"": ""UC Berkeley"", ""status"": ""accepted""}, {""school"": ""Harvard"", ""status"": ""rejected""}, {""school"": ""Vanderbilt"", ""status"": ""rejected""}, {""school"": ""UPenn"", ""status"": ""rejected""}, {""school"": ""Stanford"", ""status"": ""rejected""}, {""school"": ""Brown"", ""status"": ""rejected""}, {""school"": ""MIT"", ""status"": ""waitlisted""}, {""school"": ""Boston College"", ""status"": ""rejected""}]",True,True,True,546,True,True,False,True,3
demo_000051,collegeresults,Student8907,1741662373,College Results - Average Profile,/r/collegeresults/comments/demo_51,129,43,,3.69,,1594.0,,,,,False,,,,,Male,Asian,False,FL,0,False,0,,,7,"[{""school"": ""UCLA"", ""status"": ""accepted""}, {""school"": ""USC"", ""status"": ""accepted""}, {""school"": ""Cornell"", ""status"": ""rejected""}, {""school"": ""MIT"", ""status"": ""rejected""}, {""school"": ""Notre Dame"", ""status"": ""rejected""}, {""school"": ""Georgia Tech"", ""status"": ""accepted""}, {""school"": ""UPenn"", ""status"": ""rejected""}]",True,True,False,376,True,True,False,True,3
demo_000052,collegeresults,Student1237,1734753973,College Results - Strong Profile,/r/collegeresults/comments/demo_52,415,132,Discussion,3.91,,1573.0,,,,,False,,,,,Female,White,False,NC,1,True,0,,,11,"[{""school"": ""Georgia Tech"", ""status"": ""accepted""}, {""school"": ""Princeton"", ""status"": ""rejected""}, {""school"": ""Columbia"", ""status"": ""accepted""}, {""school"": ""Stanford"", ""status"": ""accepted""}, {""school"": ""UCLA"", ""status"": ""accepted""}, {""school"": ""UNC Chapel Hill"", ""status"": ""accepted""}, {""school"": ""Ohio State"", ""status"": ""accepted""}, {""school"": ""NYU"", ""status"": ""accepted""}, {""school"": ""Boston College"", ""status"": ""accepted""}, {""school"": ""MIT"", ""status"": ""accepted""}, {""school"": ""USC"", ""status"": ""accepted""}]",True,True,False,478,True,True,False,True,3
demo_000053,collegeresults,Student8896,1754622373,College Results - Weak Profile,/r/collegeresults/comments/demo_53,392,57,,3.61,,,,,,,False,,,,,Male,Asian,False,CA,1,True,0,,,15,"[{""school"": ""MIT"", ""status"": ""rejected""}, {""school"": ""NYU"", ""status"": ""rejected""}, {""school"": ""Boston College"", ""status"": ""rejected""}, {""school"": ""Penn State"", ""status"": ""rejected""}, {""school"": ""UC Berkeley"", ""status"": ""accepted""}, {""school"": ""UNC Chapel Hill"", ""status"": ""accepted""}, {""school"": ""University of Michigan"", ""status"": ""rejected""}, {""school"": ""Cornell"", ""status"": ""rejected""}, {""school"": ""Vanderbilt"", ""status"": ""rejected""}, {""school"": ""University of Virginia"", ""status"": ""rejected""}, {""school"": ""Carnegie Mellon"", ""status"": ""rejected""}, {""school"": ""Princeton"", ""status"": ""rejected""}, {""school"": ""UCLA"", ""status"": ""rejected""}, {""school"": ""Ohio State"", ""status"": ""accepted""}, {""school"": ""Yale"", ""status"": ""rejected""}]",True,True,False,589,True,False,False,True,2
demo_000054,collegeresults,Student9719,1733803573,College Results - Weak Profile,/r/collegeresults/comments/demo_54,441,163,Results,3.46,,,,,30.0,,False,,,,,Male,Hispanic,False,CA,1,True,0,,,7,"[{""school"": ""UNC Chapel Hill"", ""status"": ""accepted""}, {""school"": ""Ohio State"", ""status"": ""accepted""}, {""school"": ""Columbia"", ""status"": ""waitlisted""}, {""school"": ""Dartmouth"", ""status"": ""waitlisted""}, {""school"": ""USC"", ""status"": ""rejected""}, {""school"": ""Rice"", ""status"": ""accepted""}, {""school"": ""University of Michigan"", ""status"": ""waitlisted""}]",True,True,True,419,True,True,False,True,3
demo_000055,collegeresults,Student2860,1735617973,College Results - Weak Profile,/r/collegeresults/comments/demo_55,7,132,,3.7,,,,,,,False,,,,,Female,Asian,False,GA,1,False,0,,,11,"[{""school"": ""Georgia Tech"", ""status"": ""rejected""}, {""school"": ""Harvard"", ""status"": ""rejected""}, {""school"": ""Penn State"", ""status"": ""accepted""}, {""school"": ""Yale"", ""status"": ""rejected""}, {""school"": ""MIT"", ""status"": ""waitlisted""}, {""school"": ""Brown"", ""status"": ""waitlisted""}, {""school"": ""UNC Chapel Hill"", ""status"": ""rejected""}, {""school"": ""University of Michigan"", ""status"": ""rejected""}, {""school"": ""Notre Dame"", ""status"": ""accepted""}, {""school"": ""UC Berkeley"", ""status"": ""rejected""}, {""school"": ""USC"", ""status"": ""rejected""}]",True,True,True,489,True,False,False,True,2
demo_000056,collegeresults,Student2438,1749697573,College Results - Average Profile,/r/collegeresults/comments/demo_56,484,159,Discussion,3.76,,1410.0,,,,,False,,,,,Female,White,False,GA,1,False,0,,,8,"[{""school"": ""Stanford"", ""status"": ""rejected""}, {""school"": ""University of Virginia"", ""status"": ""waitlisted""}, {""school"": ""Duke"", ""status"": ""rejected""}, {""school"": ""Northwestern"", ""status"": ""accepted""}, {""school"": ""University of Texas Austin"", ""status"": ""accepted""}, {""school"": ""MIT"", ""status"": ""waitlisted""}, {""school"": ""Vanderbilt"", ""status"": ""accepted""}, {""school"": ""Boston College"", ""status"": ""rejected""}]",True,True,True,451,True,True,False,True,3
demo_000057,collegeresults,Student3809,1732248373,College Results - Average Profile,/r/collegeresults/comments/demo_57,450,80,Results,3.64,,1437.0,,,,,False,,,,,Female,White,False,IL,0,True,0,,,7,"[{""school"": ""University of Texas Austin"", ""status"": ""rejected""}, {""school"": ""Duke"", ""status"": ""accepted""}, {""school"": ""Columbia"", ""status"": ""waitlisted""}, {""school"": ""Rice"", ""status"": ""waitlisted""}, {""school"": ""Harvard"", ""status"": ""waitlisted""}, {""school"": ""University of Michigan"", ""status"": ""accepted""}, {""school"": ""UC Berkeley"", ""status"": ""waitlisted""}]",True,True,True,444,True,True,False,True,3
demo_000058,collegeresults,Student3373,1756350373,College Results - Weak Profile,/r/collegeresults/comments/demo_58,268,152,Discussion,3.86,,,,,,,False,,,,,Female,Asian,False,TX,0,True,0,,,10,"[{""school"": ""UPenn"", ""status"": ""rejected""}, {""school"": ""Ohio State"", ""status"": ""rejected""}, {""school"": ""Rice"", ""status"": ""rejected""}, {""school"": ""Vanderbilt"", ""status"": ""rejected""}, {""school"": ""UCLA"", ""status"": ""rejected""}, {""school"": ""UNC Chapel Hill"", ""status"": ""rejected""}, {""school"": ""UC Berkeley"", ""status"": ""rejected""}, {""school"": ""Northwestern"", ""status"": ""rejected""}, {""school"": ""Penn State"", ""status"": ""accepted""}, {""school"": ""Duke"", ""status"": ""rejected""}]",True,True,False,459,True,False,False,True,2
demo_000059,collegeresults,Student3259,1751079973,College Results - Average Profile,/r/collegeresults/comments/demo_59,331,178,,3.72,,1243.0,,,,,False,,,,,Female,Asian,False,MA,1,True,0,,,5,"[{""school"": ""Ohio State"", ""status"": ""accepted""}, {""school"": ""UNC Chapel Hill"", ""status"": ""accepted""}, {""school"": ""UPenn"", ""status"": ""accepted""}, {""school"": ""Vanderbilt"", ""status"": ""waitlisted""}, {""school"": ""Georgia Tech"", ""status"": ""waitlisted""}]",True,False,True,395,True,True,False,True,3
demo_000060,collegeresults,Student4801,1741493173,College Results - Weak Profile,/r/collegeresults/comments/demo_60,378,195,Results,3.37,,1443.0,,,,,False,,,,,Male,Hispanic,False,CA,1,True,0,,,5,"[{""school"": ""Duke"", ""status"": ""waitlisted""}, {""school"": ""UC Berkeley"", ""status"": ""accepted""}, {""school"": ""UCLA"", ""status"": ""accepted""}, {""school"": ""USC"", ""status"": ""rejected""}, {""school"": ""Columbia"", ""status"": ""accepted""}]",True,True,True,351,True,True,False,True,3
demo_000061,collegeresults,Student8138,1737777973,College Results - Weak Profile,/r/collegeresults/comments/demo_61,280,24,Discussion,3.32,,1519.0,,,,,False,,,,,Female,Asian,False,NC,1,False,0,,,14,"[{""school"": ""Ohio State"", ""status"": ""rejected""}, {""school"": ""Princeton"", ""status"": ""rejected""}, {""school"": ""Stanford"", ""status"": ""rejected""}, {""school"": ""Yale"", ""status"": ""rejected""}, {""school"": ""USC"", ""status"": ""accepted""}, {""school"": ""Boston College"", ""status"": ""rejected""}, {""school"": ""UNC Chapel Hill"", ""status"": ""waitlisted""}, {""school"": ""Vanderbilt"", ""status"": ""rejected""}, {""school"": ""Northwestern"", ""status"": ""rejected""}, {""school"": ""University of Michigan"", ""status"": ""rejected""}, {""school"": ""University of Virginia"", ""status"": ""rejected""}, {""school"": ""UC Berkeley"", ""status"": ""rejected""}, {""school"": ""Dartmouth"", ""status"": ""accepted""}, {""school"": ""Penn State"", ""status"": ""rejected""}]",True,True,True,574,True,True,False,True,3
demo_000062,collegeresults,Student4003,1733198773,College Results - Average Profile,/r/collegeresults/comments/demo_62,412,200,Results,3.92,,1350.0,,,,,False,,,,,Female,Black,False,GA,1,False,0,,,9,"[{""school"": ""Dartmouth"", ""status"": ""accepted""}, {""school"": ""Columbia"", ""status"": ""rejected""}, {""school"": ""Rice"", ""status"": ""accepted""}, {""school"": ""Cornell"", ""status"": ""waitlisted""}, {""school"": ""UPenn"", ""status"": ""accepted""}, {""school"": ""University of Virginia"", ""status"": ""accepted""}, {""school"": ""Harvard"", ""status"": ""waitlisted""}, {""school"": ""Georgia Tech"", ""status"": ""rejected""}, {""school"": ""UNC Chapel Hill"", ""status"": ""rejected""}]",True,True,True,452,True,True,False,True,3
demo_000063,collegeresults,Student3706,1754103973,College Results - Weak Profile,/r/collegeresults/comments/demo_63,207,171,Discussion,3.99,,1316.0,,,,,False,,,,,Female,Black,False,TX,0,False,0,,,15,"[{""school"": ""Ohio State"", ""status"": ""accepted""}, {""school"": ""Penn State"", ""status"": ""rejected""}, {""school"": ""Boston College"", ""status"": ""rejected""}, {""school"": ""University of Virginia"", ""status"": ""rejected""}, {""school"": ""UCLA"", ""status"": ""rejected""}, {""school"": ""UNC Chapel Hill"", ""status"": ""rejected""}, {""school"": ""Carnegie Mellon"", ""status"": ""rejected""}, {""school"": ""Yale"", ""status"": ""rejected""}, {""school"": ""Stanford"", ""status"": ""rejected""}, {""school"": ""Princeton"", ""status"": ""rejected""}, {""school"": ""University of Texas Austin"", ""status"": ""rejected""}, {""school"": ""UC Berkeley"", ""status"": ""rejected""}, {""school"": ""NYU"", ""status"": ""rejected""}, {""school"": ""Harvard"", ""status"": ""rejected""}, {""school"": ""Rice"", ""status"": ""rejected""}]",True,True,False,633,True,True,False,True,3
demo_000064,collegeresults,Student4187,1759892773,College Results - Weak Profile,/r/collegeresults/comments/demo_64,352,172,Discussion,3.95,,1239.0,,,,,False,,,,,Male,White,False,PA,0,True,0,,,14,"[{""school"": ""Penn State"", ""status"": ""rejected""}, {""school"": ""Cornell"", ""status"": ""rejected""}, {""school"": ""University of Michigan"", ""status"": ""rejected""}, {""school"": ""Rice"", ""status"": ""accepted""}, {""school"": ""UCLA"", ""status"": ""rejected""}, {""school"": ""Princeton"", ""status"": ""rejected""}, {""school"": ""UPenn"", ""status"": ""rejected""}, {""school"": ""Vanderbilt"", ""status"": ""rejected""}, {""school"": ""NYU"", ""status"": ""accepted""}, {""school"": ""Northwestern"", ""status"": ""rejected""}, {""school"": ""Yale"", ""status"": ""rejected""}, {""school"": ""Stanford"", ""status"": ""rejected""}, {""school"": ""University of Virginia"", ""status"": ""waitlisted""}, {""school"": ""USC"", ""status"": ""waitlisted""}]",True,True,True,535,True,True,False,True,3
demo_000065,collegeresults,Student9534,1747883173,College Results - Strong Profile,/r/collegeresults/comments/demo_65,266,104,Results,3.96,,1304.0,,,,,False,,,,,Male,Asian,False,TX,1,False,0,,,14,"[{""school"": ""Dartmouth"", ""status"": ""rejected""}, {""school"": ""Harvard"", ""status"": ""accepted""}, {""school"": ""UPenn"", ""status"": ""accepted""}, {""school"": ""Yale"", ""status"": ""rejected""}, {""school"": ""Boston College"", ""status"": ""rejected""}, {""school"": ""Cornell"", ""status"": ""accepted""}, {""school"": ""UCLA"", ""status"": ""accepted""}, {""school"": ""UNC Chapel Hill"", ""status"": ""accepted""}, {""school"": ""Duke"", ""status"": ""accepted""}, {""school"": ""USC"", ""status"": ""accepted""}, {""school"": ""Georgia Tech"", ""status"": ""accepted""}, {""school"": ""Brown"", ""status"": ""accepted""}, {""school"": ""Northwestern"", ""status"": ""rejected""}, {""school"": ""NYU"", ""status"": ""accepted""}]",True,True,False,513,True,True,False,True,3
demo_000066,collegeresults,Student4595,1729739173,College Results - Average Profile,/r/collegeresults/comments/demo_66,293,32,Discussion,3.75,,1460.0,,,,,False,,,,,Female,Black,False,PA,1,False,0,,,5,"[{""school"": ""University of Michigan"", ""status"": ""rejected""}, {""school"": ""Vanderbilt"", ""status"": ""rejected""}, {""school"": ""Harvard"", ""status"": ""accepted""}, {""school"": ""Dartmouth"", ""status"": ""accepted""}, {""school"": ""Northwestern"", ""status"": ""accepted""}]",True,True,False,397,True,True,False,True,3
demo_000067,collegeresults,Student3178,1737345973,College Results - Weak Profile,/r/collegeresults/comments/demo_67,452,167,,3.45,,1275.0,,,,,False,,,,,Female,White,False,NC,0,True,0,,,7,"[{""school"": ""UPenn"", ""status"": ""rejected""}, {""school"": ""Columbia"", ""status"": ""accepted""}, {""school"": ""Duke"", ""status"": ""rejected""}, {""school"": ""Carnegie Mellon"", ""status"": ""accepted""}, {""school"": ""Brown"", ""status"": ""rejected""}, {""school"": ""Notre Dame"", ""status"": ""rejected""}, {""school"": ""University of Michigan"", ""status"": ""rejected""}]",True,True,False,410,True,True,False,True,3
demo_000068,collegeresults,Student9599,1751684773,College Results - Weak Profile,/r/collegeresults/comments/demo_68,214,61,Results,3.46,,1589.0,,,,,False,,,,,Male,White,False,PA,1,False,0,,,11,"[{""school"": ""Harvard"", ""status"": ""rejected""}, {""school"": ""Vanderbilt"", ""status"": ""rejected""}, {""school"": ""Carnegie Mellon"", ""status"": ""rejected""}, {""school"": ""UCLA"", ""status"": ""rejected""}, {""school"": ""Princeton"", ""status"": ""rejected""}, {""school"": ""Dartmouth"", ""status"": ""rejected""}, {""school"": ""UC Berkeley"", ""status"": ""accepted""}, {""school"": ""UNC Chapel Hill"", ""status"": ""rejected""}, {""school"": ""Brown"", ""status"": ""rejected""}, {""school"": ""Cornell"", ""status"": ""rejected""}, {""school"": ""Duke"", ""status"": ""accepted""}]",True,True,False,473,True,True,False,True,3
demo_000069,collegeresults,Student3616,1748660773,College Results - Weak Profile,/r/collegeresults/comments/demo_69,61,131,Results,3.35,,1299.0,,,,,False,,,,,Female,White,False,CA,0,False,0,,,7,"[{""school"": ""MIT"", ""status"": ""rejected""}, {""school"": ""Duke"", ""status"": ""rejected""}, {""school"": ""UPenn"", ""status"": ""accepted""}, {""school"": ""Carnegie Mellon"", ""status"": ""rejected""}, {""school"": ""NYU"", ""status"": ""accepted""}, {""school"": ""Georgia Tech"", ""status"": ""accepted""}, {""school"": ""Dartmouth"", ""status"": ""rejected""}]",True,True,False,378,True,True,False,True,3
demo_000070,collegeresults,Student7588,1752548773,College Results - Weak Profile,/r/collegeresults/comments/demo_70,206,25,Results,3.32,,,,,,,False,,,,,Female,Black,False,MA,0,False,0,,,6,"[{""school"": ""UC Berkeley"", ""status"": ""rejected""}, {""school"": ""UNC Chapel Hill"", ""status"": ""rejected""}, {""school"": ""MIT"", ""status"": ""rejected""}, {""school"": ""USC"", ""status"": ""accepted""}, {""school"": ""Harvard"", ""status"": ""rejected""}, {""school"": ""Ohio State"", ""status"": ""rejected""}]",True,True,False,372,True,False,False,True,2
demo_000071,collegeresults,Student9838,1751857573,College Results - Weak Profile,/r/collegeresults/comments/demo_71,438,128,Results,3.43,,,,,31.0,,False,,,,,Female,Asian,False,OH,1,False,0,,,15,"[{""school"": ""University of Texas Austin"", ""status"": ""rejected""}, {""school"": ""Ohio State"", ""status"": ""accepted""}, {""school"": ""Harvard"", ""status"": ""rejected""}, {""school"": ""MIT"", ""status"": ""rejected""}, {""school"": ""Northwestern"", ""status"": ""waitlisted""}, {""school"": ""Carnegie Mellon"", ""status"": ""rejected""}, {""school"": ""Penn State"", ""status"": ""rejected""}, {""school"": ""Notre Dame"", ""status"": ""rejected""}, {""school"": ""Duke"", ""status"": ""rejected""}, {""school"": ""University of Michigan"", ""status"": ""rejected""}, {""school"": ""NYU"", ""status"": ""waitlisted""}, {""school"": ""UPenn"", ""status"": ""accepted""}, {""school"": ""USC"", ""status"": ""rejected""}, {""school"": ""UCLA"", ""status"": ""accepted""}, {""school"": ""Stanford"", ""status"": ""rejected""}]",True,True,True,560,True,True,False,True,3
demo_000072,collegeresults,Student9083,1745463973,College Results - Weak Profile,/r/collegeresults/comments/demo_72,493,19,,3.67,,,,,,,False,,,,,Female,Asian,False,OH,0,False,0,,,14,"[{""school"": ""University of Virginia"", ""status"": ""rejected""}, {""school"": ""Stanford"", ""status"": ""rejected""}, {""school"": ""UNC Chapel Hill"", ""status"": ""rejected""}, {""school"": ""UC Berkeley"", ""status"": ""accepted""}, {""school"": ""UCLA"", ""status"": ""accepted""}, {""school"": ""Carnegie Mellon"", ""status"": ""rejected""}, {""school"": ""USC"", ""status"": ""rejected""}, {""school"": ""Duke"", ""status"": ""rejected""}, {""school"": ""Yale"", ""status"": ""accepted""}, {""school"": ""Northwestern"", ""status"": ""rejected""}, {""school"": ""Harvard"", ""status"": ""rejected""}, {""school"": ""Penn State"", ""status"": ""rejected""}, {""school"": ""Georgia Tech"", ""status"": ""rejected""}, {""school"": ""Cornell"", ""status"": ""accepted""}]",True,True,False,567,True,False,False,True,2
demo_000073,collegeresults,Student3571,1749092773,College Results - Weak Profile,/r/collegeresults/comments/demo_73,362,53,Discussion,3.76,,,,,,,False,,,,,Male,Hispanic,False,TX,0,True,0,,,13,"[{""school"": ""Duke"", ""status"": ""rejected""}, {""school"": ""Princeton"", ""status"": ""rejected""}, {""school"": ""UC Berkeley"", ""status"": ""rejected""}, {""school"": ""Carnegie Mellon"", ""status"": ""accepted""}, {""school"": ""Columbia"", ""status"": ""accepted""}, {""school"": ""UPenn"", ""status"": ""rejected""}, {""school"": ""Stanford"", ""status"": ""rejected""}, {""school"": ""University of Michigan"", ""status"": ""waitlisted""}, {""school"": ""Penn State"", ""status"": ""rejected""}, {""school"": ""Boston College"", ""status"": ""rejected""}, {""school"": ""Harvard"", ""status"": ""rejected""}, {""school"": ""Brown"", ""status"": ""waitlisted""}, {""school"": ""Dartmouth"", ""status"": ""waitlisted""}]",True,True,True,535,True,False,False,True,2
demo_000074,collegeresults,Student6558,1752289573,College Results - Weak Profile,/r/collegeresults/comments/demo_74,467,72,Results,3.97,,1235.0,,,,,False,,,,,Male,Asian,False,TX,1,False,0,,,14,"[{""school"": ""USC"", ""status"": ""rejected""}, {""school"": ""UNC Chapel Hill"", ""status"": ""rejected""}, {""school"": ""Harvard"", ""status"": ""rejected""}, {""school"": ""Columbia"", ""status"": ""rejected""}, {""school"": ""Vanderbilt"", ""status"": ""accepted""}, {""school"": ""Rice"", ""status"": ""accepted""}, {""school"": ""University of Michigan"", ""status"": ""rejected""}, {""school"": ""Dartmouth"", ""status"": ""rejected""}, {""school"": ""NYU"", ""status"": ""rejected""}, {""school"": ""UPenn"", ""status"": ""rejected""}, {""school"": ""Notre Dame"", ""status"": ""rejected""}, {""school"": ""Georgia Tech"", ""status"": ""rejected""}, {""school"": ""Boston College"", ""status"": ""accepted""}, {""school"": ""Carnegie Mellon"", ""status"": ""rejected""}]",True,True,False,566,True,True,False,True,3
demo_000075,collegeresults,Student9297,1733976373,College Results - Weak Profile,/r/collegeresults/comments/demo_75,165,12,Results,3.99,,,,,,,False,,,,,Male,Asian,False,PA,0,True,0,,,14,"[{""school"": ""Brown"", ""status"": ""accepted""}, {""school"": ""Georgia Tech"", ""status"": ""rejected""}, {""school"": ""Ohio State"", ""status"": ""waitlisted""}, {""school"": ""Cornell"", ""status"": ""rejected""}, {""school"": ""UCLA"", ""status"": ""rejected""}, {""school"": ""Northwestern"", ""status"": ""accepted""}, {""school"": ""Columbia"", ""status"": ""rejected""}, {""school"": ""Harvard"", ""status"": ""rejected""}, {""school"": ""NYU"", ""status"": ""rejected""}, {""school"": ""Dartmouth"", ""status"": ""accepted""}, {""school"": ""University of Virginia"", ""status"": ""accepted""}, {""school"": ""UC Berkeley"", ""status"": ""rejected""}, {""school"": ""University of Texas Austin"", ""status"": ""waitlisted""}, {""school"": ""University of Michigan"", ""status"": ""rejected""}]",True,True,True,572,True,False,False,True,2
demo_000076,collegeresults,Student2110,1732421173,College Results - Weak Profile,/r/collegeresults/comments/demo_76,395,151,Results,3.56,,1342.0,,,,,False,,,,,Female,White,False,FL,1,True,0,,,11,"[{""school"": ""Carnegie Mellon"", ""status"": ""rejected""}, {""school"": ""Columbia"", ""status"": ""rejected""}, {""school"": ""UC Berkeley"", ""status"": ""accepted""}, {""school"": ""UCLA"", ""status"": ""accepted""}, {""school"": ""MIT"", ""status"": ""waitlisted""}, {""school"": ""Brown"", ""status"": ""waitlisted""}, {""school"": ""Georgia Tech"", ""status"": ""rejected""}, {""school"": ""Duke"", ""status"": ""accepted""}, {""school"": ""Vanderbilt"", ""status"": ""rejected""}, {""school"": ""Notre Dame"", ""status"": ""rejected""}, {""school"": ""Yale"", ""status"": ""rejected""}]",True,True,True,478,True,True,False,True,3
demo_000077,collegeresults,Student7515,1757646373,College Results - Weak Profile,/r/collegeresults/comments/demo_77,396,15,Discussion,3.43,,,,,32.0,,False,,,,,Male,Hispanic,False,GA,1,True,0,,,15,"[{""school"": ""NYU"", ""status"": ""accepted""}, {""school"": ""Boston College"", ""status"": ""rejected""}, {""school"": ""Columbia"", ""status"": ""accepted""}, {""school"": ""UCLA"", ""status"": ""rejected""}, {""school"": ""Georgia Tech"", ""status"": ""rejected""}, {""school"": ""University of Michigan"", ""status"": ""accepted""}, {""school"": ""University of Texas Austin"", ""status"": ""accepted""}, {""school"": ""Northwestern"", ""status"": ""rejected""}, {""school"": ""UPenn"", ""status"": ""accepted""}, {""school"": ""Yale"", ""status"": ""rejected""}, {""school"": ""UNC Chapel Hill"", ""status"": ""waitlisted""}, {""school"": ""Ohio State"", ""status"": ""rejected""}, {""school"": ""Dartmouth"", ""status"": ""accepted""}, {""school"": ""Cornell"", ""status"": ""rejected""}, {""school"": ""Rice"", ""status"": ""waitlisted""}]",True,True,True,581,True,True,False,True,3
demo_000078,collegeresults,Student2913,1732507573,College Results - Average Profile,/r/collegeresults/comments/demo_78,328,142,Discussion,3.63,,1472.0,,,,,False,,,,,Male,White,False,IL,0,False,0,,,6,"[{""school"": ""Boston College"", ""status"": ""accepted""}, {""school"": ""Vanderbilt"", ""status"": ""accepted""}, {""school"": ""Rice"", ""status"": ""rejected""}, {""school"": ""MIT"", ""status"": ""rejected""}, {""school"": ""UCLA"", ""status"": ""waitlisted""}, {""school"": ""UNC Chapel Hill"", ""status"": ""accepted""}]",True,True,True,378,True,True,False,True,3
demo_000079,collegeresults,Student4378,1743995173,College Results - Weak Profile,/r/collegeresults/comments/demo_79,373,150,,3.36,,,,,32.0,,False,,,,,Male,Hispanic,False,NC,0,False,0,,,8,"[{""school"": ""University of Virginia"", ""status"": ""rejected""}, {""school"": ""Notre Dame"", ""status"": ""accepted""}, {""school"": ""Brown"", ""status"": ""waitlisted""}, {""school"": ""Ohio State"", ""status"": ""rejected""}, {""school"": ""Boston College"", ""status"": ""accepted""}, {""school"": ""Dartmouth"", ""status"": ""rejected""}, {""school"": ""Georgia Tech"", ""status"": ""rejected""}, {""school"": ""Vanderbilt"", ""status"": ""rejected""}]",True,True,True,442,True,True,False,True,3
demo_000080,collegeresults,Student7019,1749524773,College Results - Weak Profile,/r/collegeresults/comments/demo_80,147,90,,3.59,,,,,28.0,,False,,,,,Male,Asian,False,MA,0,True,0,,,9,"[{""school"": ""UCLA"", ""status"": ""rejected""}, {""school"": ""University of Michigan"", ""status"": ""rejected""}, {""school"": ""UPenn"", ""status"": ""rejected""}, {""school"": ""Dartmouth"", ""status"": ""rejected""}, {""school"": ""Columbia"", ""status"": ""rejected""}, {""school"": ""University of Virginia"", ""status"": ""rejected""}, {""school"": ""Yale"", ""status"": ""rejected""}, {""school"": ""Duke"", ""status"": ""accepted""}, {""school"": ""Ohio State"", ""status"": ""rejected""}]",True,True,False,434,True,True,False,True,3
demo_000081,collegeresults,Student4083,1735531573,College Results - Weak Profile,/r/collegeresults/comments/demo_81,323,182,Discussion,3.55,,1235.0,,,,,False,,,,,Female,Black,False,CA,0,False,0,,,7,"[{""school"": ""Carnegie Mellon"", ""status"": ""rejected""}, {""school"": ""Georgia Tech"", ""status"": ""accepted""}, {""school"": ""Notre Dame"", ""status"": ""rejected""}, {""school"": ""Rice"", ""status"": ""rejected""}, {""school"": ""UNC Chapel Hill"", ""status"": ""accepted""}, {""school"": ""Harvard"", ""status"": ""rejected""}, {""school"": ""Duke"", ""status"": ""waitlisted""}]",True,True,True,391,True,True,False,True,3
demo_000082,collegeresults,Student8722,1736654773,College Results - Average Profile,/r/collegeresults/comments/demo_82,401,22,Results,3.65,,,,,30.0,,False,,,,,Female,Asian,False,IL,1,False,0,,,6,"[{""school"": ""UNC Chapel Hill"", ""status"": ""rejected""}, {""school"": ""Penn State"", ""status"": ""rejected""}, {""school"": ""Brown"", ""status"": ""rejected""}, {""school"": ""Notre Dame"", ""status"": ""accepted""}, {""school"": ""Vanderbilt"", ""status"": ""accepted""}, {""school"": ""Boston College"", ""status"": ""rejected""}]",True,True,False,404,True,True,False,True,3
demo_000083,collegeresults,Student3514,1744167973,College Results - Weak Profile,/r/collegeresults/comments/demo_83,117,178,Results,3.61,,,,,,,False,,,,,Male,Asian,False,TX,0,True,0,,,7,"[{""school"": ""University of Texas Austin"", ""status"": ""accepted""}, {""school"": ""UCLA"", ""status"": ""rejected""}, {""school"": ""Cornell"", ""status"": ""rejected""}, {""school"": ""Duke"", ""status"": ""accepted""}, {""school"": ""UNC Chapel Hill"", ""status"": ""accepted""}, {""school"": ""Northwestern"", ""status"": ""rejected""}, {""school"": ""USC"", ""status"": ""waitlisted""}]",True,True,True,409,True,False,False,True,2
demo_000084,collegeresults,Student6709,1730779573,College Results - Weak Profile,/r/collegeresults/comments/demo_84,103,110,,3.72,,,,,,,False,,,,,Female,Black,False,NY,1,False,0,,,14,"[{""school"": ""Notre Dame"", ""status"": ""accepted""}, {""school"": ""Rice"", ""status"": ""rejected""}, {""school"": ""Princeton"", ""status"": ""rejected""}, {""school"": ""USC"", ""status"": ""rejected""}, {""school"": ""Yale"", ""status"": ""rejected""}, {""school"": ""NYU"", ""status"": ""rejected""}, {""school"": ""Boston College"", ""status"": ""rejected""}, {""school"": ""Northwestern"", ""status"": ""accepted""}, {""school"": ""Duke"", ""status"": ""rejected""}, {""school"": ""Dartmouth"", ""status"": ""rejected""}, {""school"": ""University of Michigan"", ""status"": ""rejected""}, {""school"": ""UNC Chapel Hill"", ""status"": ""rejected""}, {""school"": ""Ohio State"", ""status"": ""rejected""}, {""school"": ""Columbia"", ""status"": ""rejected""}]",True,True,False,550,True,False,False,True,2
demo_000085,collegeresults,Student9539,1756695973,College Results - Average Profile,/r/collegeresults/comments/demo_85,199,29,Results,3.7,,1419.0,,,,,False,,,,,Male,White,False,FL,1,False,0,,,14,"[{""school"": ""Dartmouth"", ""status"": ""accepted""}, {""school"": ""Notre Dame"", ""status"": ""accepted""}, {""school"": ""University of Virginia"", ""status"": ""accepted""}, {""school"": ""Princeton"", ""status"": ""waitlisted""}, {""school"": ""NYU"", ""status"": ""accepted""}, {""school"": ""University of Texas Austin"", ""status"": ""accepted""}, {""school"": ""UPenn"", ""status"": ""accepted""}, {""school"": ""Carnegie Mellon"", ""status"": ""waitlisted""}, {""school"": ""Ohio State"", ""status"": ""rejected""}, {""school"": ""UNC Chapel Hill"", ""status"": ""accepted""}, {""school"": ""UCLA"", ""status"": ""rejected""}, {""school"": ""UC Berkeley"", ""status"": ""waitlisted""}, {""school"": ""Vanderbilt"", ""status"": ""accepted""}, {""school"": ""University of Michigan"", ""status"": ""accepted""}]",True,True,True,606,True,True,False,True,3
demo_000086,collegeresults,Student5139,1745550373,College Results - Average Profile,/r/collegeresults/comments/demo_86,304,19,Results,3.74,,1436.0,,,,,False,,,,,Male,Asian,False,FL,0,True,0,,,9,"[{""school"": ""NYU"", ""status"": ""accepted""}, {""school"": ""Harvard"", ""status"": ""accepted""}, {""school"": ""Dartmouth"", ""status"": ""accepted""}, {""school"": ""USC"", ""status"": ""rejected""}, {""school"": ""Ohio State"", ""status"": ""accepted""}, {""school"": ""Rice"", ""status"": ""rejected""}, {""school"": ""UC Berkeley"", ""status"": ""rejected""}, {""school"": ""University of Virginia"", ""status"": ""accepted""}, {""school"": ""UCLA"", ""status"": ""rejected""}]",True,True,False,418,True,True,False,True,3
demo_000087,collegeresults,Student7538,1757559973,College Results - Weak Profile,/r/collegeresults/comments/demo_87,485,94,Results,3.49,,1591.0,,,,,False,,,,,Female,Black,False,MA,0,False,0,,,12,"[{""school"": ""UCLA"", ""status"": ""rejected""}, {""school"": ""University of Michigan"", ""status"": ""rejected""}, {""school"": ""Georgia Tech"", ""status"": ""rejected""}, {""school"": ""University of Texas Austin"", ""status"": ""rejected""}, {""school"": ""USC"", ""status"": ""accepted""}, {""school"": ""MIT"", ""status"": ""accepted""}, {""school"": ""UC Berkeley"", ""status"": ""rejected""}, {""school"": ""University of Virginia"", ""status"": ""rejected""}, {""school"": ""NYU"", ""status"": ""accepted""}, {""school"": ""Cornell"", ""status"": ""rejected""}, {""school"": ""Notre Dame"", ""status"": ""rejected""}, {""school"": ""Duke"", ""status"": ""accepted""}]",True,True,False,515,True,True,False,True,3
demo_000088,collegeresults,Student5661,1730430373,College Results - Weak Profile,/r/collegeresults/comments/demo_88,283,20,Results,3.95,,1277.0,,,,,False,,,,,Female,Black,False,FL,0,True,0,,,14,"[{""school"": ""Rice"", ""status"": ""accepted""}, {""school"": ""Boston College"", ""status"": ""accepted""}, {""school"": ""Carnegie Mellon"", ""status"": ""accepted""}, {""school"": ""Yale"", ""status"": ""rejected""}, {""school"": ""University of Virginia"", ""status"": ""rejected""}, {""school"": ""Notre Dame"", ""status"": ""waitlisted""}, {""school"": ""University of Michigan"", ""status"": ""rejected""}, {""school"": ""Northwestern"", ""status"": ""rejected""}, {""school"": ""NYU"", ""status"": ""accepted""}, {""school"": ""Brown"", ""status"": ""rejected""}, {""school"": ""Princeton"", ""status"": ""rejected""}, {""school"": ""UCLA"", ""status"": ""accepted""}, {""school"": ""Penn State"", ""status"": ""rejected""}, {""school"": ""Dartmouth"", ""status"": ""accepted""}]",True,True,True,572,True,True,False,True,3
demo_000089,collegeresults,Student3226,1758251173,College Results - Weak Profile,/r/collegeresults/comments/demo_89,197,73,Discussion,3.58,,1454.0,,,,,False,,,,,Male,Asian,False,IL,1,False,0,,,12,"[{""school"": ""Brown"", ""status"": ""rejected""}, {""school"": ""Carnegie Mellon"", ""status"": ""rejected""}, {""school"": ""UPenn"", ""status"": ""accepted""}, {""school"": ""University of Michigan"", ""status"": ""waitlisted""}, {""school"": ""Harvard"", ""status"": ""rejected""}, {""school"": ""Notre Dame"", ""status"": ""rejected""}, {""school"": ""UNC Chapel Hill"", ""status"": ""accepted""}, {""school"": ""NYU"", ""status"": ""rejected""}, {""school"": ""Ohio State"", ""status"": ""rejected""}, {""school"": ""Princeton"", ""status"": ""rejected""}, {""school"": ""Northwestern"", ""status"": ""accepted""}, {""school"": ""Columbia"", ""status"": ""rejected""}]",True,True,True,512,True,True,False,True,3
demo_000090,collegeresults,Student2962,1751511973,College Results - Average Profile,/r/collegeresults/comments/demo_90,154,122,Discussion,3.8,,,,,33.0,,False,,,,,Male,Hispanic,False,IL,0,False,0,,,14,"[{""school"": ""Cornell"", ""status"": ""accepted""}, {""school"": ""UPenn"", ""status"": ""rejected""}, {""school"": ""University of Texas Austin"", ""status"": ""rejected""}, {""school"": ""Boston College"", ""status"": ""rejected""}, {""school"": ""Duke"", ""status"": ""rejected""}, {""school"": ""Harvard"", ""status"": ""accepted""}, {""school"": ""Brown"", ""status"": ""waitlisted""}, {""school"": ""NYU"", ""status"": ""rejected""}, {""school"": ""Georgia Tech"", ""status"": ""accepted""}, {""school"": ""Penn State"", ""status"": ""accepted""}, {""school"": ""Stanford"", ""status"": ""waitlisted""}, {""school"": ""Princeton"", ""status"": ""waitlisted""}, {""school"": ""Ohio State"", ""status"": ""accepted""}, {""school"": ""UNC Chapel Hill"", ""status"": ""accepted""}]",True,True,True,562,True,True,False,True,3
demo_000091,collegeresults,Student7086,1742180773,College Results - Weak Profile,/r/collegeresults/comments/demo_91,174,52,,3.73,,1265.0,,,,,False,,,,,Male,Asian,False,CA,0,False,0,,,6,"[{""school"": ""Rice"", ""status"": ""waitlisted""}, {""school"": ""NYU"", ""status"": ""waitlisted""}, {""school"": ""University of Texas Austin"", ""status"": ""rejected""}, {""school"": ""Yale"", ""status"": ""rejected""}, {""school"": ""Duke"", ""status"": ""waitlisted""}, {""school"": ""Ohio State"", ""status"": ""accepted""}]",True,True,True,371,True,True,False,True,3
demo_000092,collegeresults,Student6318,1743649573,College Results - Weak Profile,/r/collegeresults/comments/demo_92,126,195,Results,3.36,,,,,,,False,,,,,Female,Black,False,NC,1,False,0,,,11,"[{""school"": ""University of Michigan"", ""status"": ""rejected""}, {""school"": ""UNC Chapel Hill"", ""status"": ""rejected""}, {""school"": ""Princeton"", ""status"": ""rejected""}, {""school"": ""UPenn"", ""status"": ""rejected""}, {""school"": ""Notre Dame"", ""status"": ""rejected""}, {""school"": ""Dartmouth"", ""status"": ""accepted""}, {""school"": ""Ohio State"", ""status"": ""waitlisted""}, {""school"": ""Duke"", ""status"": ""rejected""}, {""school"": ""Columbia"", ""status"": ""rejected""}, {""school"": ""University of Texas Austin"", ""status"": ""accepted""}, {""school"": ""Yale"", ""status"": ""rejected""}]",True,True,True,500,True,False,False,True,2
demo_000093,collegeresults,Student8613,1741320373,College Results - Weak Profile,/r/collegeresults/comments/demo_93,472,76,Results,3.53,,,,,36.0,,False,,,,,Female,Asian,False,NY,1,False,0,,,11,"[{""school"": ""Brown"", ""status"": ""rejected""}, {""school"": ""Columbia"", ""status"": ""rejected""}, {""school"": ""NYU"", ""status"": ""rejected""}, {""school"": ""Notre Dame"", ""status"": ""rejected""}, {""school"": ""UC Berkeley"", ""status"": ""accepted""}, {""school"": ""Ohio State"", ""status"": ""rejected""}, {""school"": ""MIT"", ""status"": ""rejected""}, {""school"": ""UCLA"", ""status"": ""accepted""}, {""school"": ""Georgia Tech"", ""status"": ""accepted""}, {""school"": ""University of Texas Austin"", ""status"": ""rejected""}, {""school"": ""Vanderbilt"", ""status"": ""rejected""}]",True,True,False,474,True,True,False,True,3
demo_000094,collegeresults,Student3826,1742871973,College Results - Weak Profile,/r/collegeresults/comments/demo_94,341,158,,3.34,,,,,,,False,,,,,Male,White,False,GA,1,True,0,,,11,"[{""school"": ""Columbia"", ""status"": ""waitlisted""}, {""school"": ""UPenn"", ""status"": ""rejected""}, {""school"": ""University of Virginia"", ""status"": ""rejected""}, {""school"": ""Notre Dame"", ""status"": ""rejected""}, {""school"": ""UCLA"", ""status"": ""rejected""}, {""school"": ""UC Berkeley"", ""status"": ""accepted""}, {""school"": ""MIT"", ""status"": ""rejected""}, {""school"": ""Rice"", ""status"": ""rejected""}, {""school"": ""Penn State"", ""status"": ""rejected""}, {""school"": ""Princeton"", ""status"": ""rejected""}, {""school"": ""Brown"", ""status"": ""rejected""}]",True,True,True,469,True,False,False,True,2
demo_000095,collegeresults,Student4761,1729652773,College Results - Weak Profile,/r/collegeresults/comments/demo_95,81,95,Discussion,3.44,,,,,34.0,,False,,,,,Male,White,False,PA,0,False,0,,,10,"[{""school"": ""Notre Dame"", ""status"": ""rejected""}, {""school"": ""Cornell"", ""status"": ""accepted""}, {""school"": ""UNC Chapel Hill"", ""status"": ""rejected""}, {""school"": ""Princeton"", ""status"": ""rejected""}, {""school"": ""University of Michigan"", ""status"": ""accepted""}, {""school"": ""Vanderbilt"", ""status"": ""rejected""}, {""school"": ""Rice"", ""status"": ""accepted""}, {""school"": ""Columbia"", ""status"": ""accepted""}, {""school"": ""Stanford"", ""status"": ""rejected""}, {""school"": ""Carnegie Mellon"", ""status"": ""accepted""}]",True,True,False,483,True,True,False,True,3
demo_000096,collegeresults,Student8615,1746414373,College Results - Weak Profile,/r/collegeresults/comments/demo_96,152,148,Results,3.47,,,,,33.0,,False,,,,,Female,Asian,False,FL,0,False,0,,,7,"[{""school"": ""Princeton"", ""status"": ""rejected""}, {""school"": ""Vanderbilt"", ""status"": ""accepted""}, {""school"": ""Brown"", ""status"": ""rejected""}, {""school"": ""Ohio State"", ""status"": ""rejected""}, {""school"": ""Harvard"", ""status"": ""rejected""}, {""school"": ""Yale"", ""status"": ""rejected""}, {""school"": ""Rice"", ""status"": ""rejected""}]",True,True,False,391,True,True,False,True,3
demo_000097,collegeresults,Student6607,1730779573,College Results - Weak Profile,/r/collegeresults/comments/demo_97,98,46,Results,3.79,,,,,,,False,,,,,Male,Asian,False,GA,1,False,0,,,13,"[{""school"": ""Vanderbilt"", ""status"": ""accepted""}, {""school"": ""Brown"", ""status"": ""waitlisted""}, {""school"": ""Georgia Tech"", ""status"": ""rejected""}, {""school"": ""Boston College"", ""status"": ""rejected""}, {""school"": ""Rice"", ""status"": ""rejected""}, {""school"": ""Columbia"", ""status"": ""waitlisted""}, {""school"": ""Duke"", ""status"": ""rejected""}, {""school"": ""UCLA"", ""status"": ""rejected""}, {""school"": ""UNC Chapel Hill"", ""status"": ""waitlisted""}, {""school"": ""Notre Dame"", ""status"": ""rejected""}, {""school"": ""MIT"", ""status"": ""waitlisted""}, {""school"": ""University of Michigan"", ""status"": ""rejected""}, {""school"": ""Princeton"", ""status"": ""rejected""}]",True,True,True,537,True,False,False,True,2
demo_000098,collegeresults,Student2032,1757300773,College Results - Weak Profile,/r/collegeresults/comments/demo_98,258,93,,3.5,,,,,,,False,,,,,Male,White,False,OH,1,False,0,,,8,"[{""school"": ""Northwestern"", ""status"": ""rejected""}, {""school"": ""University of Virginia"", ""status"": ""rejected""}, {""school"": ""UC Berkeley"", ""status"": ""accepted""}, {""school"": ""Rice"", ""status"": ""rejected""}, {""school"": ""Princeton"", ""status"": ""rejected""}, {""school"": ""USC"", ""status"": ""rejected""}, {""school"": ""UPenn"", ""status"": ""rejected""}, {""school"": ""Ohio State"", ""status"": ""rejected""}]",True,True,False,427,True,False,False,True,2
demo_000099,collegeresults,Student6262,1735617973,College Results - Weak Profile,/r/collegeresults/comments/demo_99,168,110,,3.4,,,,,36.0,,False,,,,,Female,White,False,GA,0,True,0,,,13,"[{""school"": ""Penn State"", ""status"": ""accepted""}, {""school"": ""Cornell"", ""status"": ""waitlisted""}, {""school"": ""Georgia Tech"", ""status"": ""rejected""}, {""school"": ""UNC Chapel Hill"", ""status"": ""waitlisted""}, {""school"": ""Princeton"", ""status"": ""rejected""}, {""school"": ""Columbia"", ""status"": ""rejected""}, {""school"": ""Brown"", ""status"": ""rejected""}, {""school"": ""UC Berkeley"", ""status"": ""rejected""}, {""school"": ""NYU"", ""status"": ""rejected""}, {""school"": ""Duke"", ""status"": ""rejected""}, {""school"": ""Ohio State"", ""status"": ""accepted""}, {""school"": ""Stanford"", ""status"": ""rejected""}, {""school"": ""UPenn"", ""status"": ""accepted""}]",True,True,True,500,True,True,False,True,3
demo_000100,collegeresults,Student6036,1747796773,College Results - Weak Profile,/r/collegeresults/comments/demo_100,5,71,,3.62,,,,,,,False,,,,,Female,Asian,False,PA,1,False,0,,,9,"[{""school"": ""Rice"", ""status"": ""rejected""}, {""school"": ""University of Virginia"", ""status"": ""rejected""}, {""school"": ""UC Berkeley"", ""status"": ""rejected""}, {""school"": ""Notre Dame"", ""status"": ""rejected""}, {""school"": ""University of Texas Austin"", ""status"": ""rejected""}, {""school"": ""Cornell"", ""status"": ""accepted""}, {""school"": ""Princeton"", ""status"": ""rejected""}, {""school"": ""Boston College"", ""status"": ""rejected""}, {""school"": ""USC"", ""status"": ""accepted""}]",True,True,False,476,True,False,False,True,2
demo_000101,collegeresults,Student6487,1742871973,College Results - Average Profile,/r/collegeresults/comments/demo_101,404,70,Results,3.83,,1473.0,,,,,False,,,,,Male,Asian,False,NY,0,False,0,,,7,"[{""school"": ""Yale"", ""status"": ""rejected""}, {""school"": ""Vanderbilt"", ""status"": ""accepted""}, {""school"": ""Dartmouth"", ""status"": ""accepted""}, {""school"": ""NYU"", ""status"": ""rejected""}, {""school"": ""Ohio State"", ""status"": ""rejected""}, {""school"": ""Stanford"", ""status"": ""rejected""}, {""school"": ""Cornell"", ""status"": ""accepted""}]",True,True,False,391,True,True,False,True,3
demo_000102,collegeresults,Student1999,1753931173,College Results - Weak Profile,/r/collegeresults/comments/demo_102,335,73,Results,3.54,,,,,35.0,,False,,,,,Female,White,False,TX,1,True,0,,,13,"[{""school"": ""Columbia"", ""status"": ""rejected""}, {""school"": ""Duke"", ""status"": ""accepted""}, {""school"": ""Princeton"", ""status"": ""rejected""}, {""school"": ""Stanford"", ""status"": ""rejected""}, {""school"": ""University of Virginia"", ""status"": ""rejected""}, {""school"": ""University of Texas Austin"", ""status"": ""rejected""}, {""school"": ""Penn State"", ""status"": ""accepted""}, {""school"": ""MIT"", ""status"": ""rejected""}, {""school"": ""Northwestern"", ""status"": ""rejected""}, {""school"": ""UC Berkeley"", ""status"": ""accepted""}, {""school"": ""Vanderbilt"", ""status"": ""rejected""}, {""school"": ""University of Michigan"", ""status"": ""rejected""}, {""school"": ""UPenn"", ""status"": ""accepted""}]",True,True,False,547,True,True,False,True,3
demo_000103,collegeresults,Student8390,1754708773,College Results - Average Profile,/r/collegeresults/comments/demo_103,142,38,,3.97,,1303.0,,,,,False,,,,,Male,Hispanic,False,IL,0,True,0,,,13,"[{""school"": ""UPenn"", ""status"": ""rejected""}, {""school"": ""Harvard"", ""status"": ""rejected""}, {""school"": ""USC"", ""status"": ""waitlisted""}, {""school"": ""Rice"", ""status"": ""rejected""}, {""school"": ""Notre Dame"", ""status"": ""accepted""}, {""school"": ""Duke"", ""status"": ""accepted""}, {""school"": ""UC Berkeley"", ""status"": ""rejected""}, {""school"": ""Princeton"", ""status"": ""rejected""}, {""school"": ""Boston College"", ""status"": ""waitlisted""}, {""school"": ""Northwestern"", ""status"": ""accepted""}, {""school"": ""University of Virginia"", ""status"": ""waitlisted""}, {""school"": ""Vanderbilt"", ""status"": ""rejected""}, {""school"": ""Cornell"", ""status"": ""accepted""}]",True,True,True,524,True,True,False,True,3
demo_000104,collegeresults,Student7388,1754363173,College Results - Weak Profile,/r/collegeresults/comments/demo_104,203,195,Results,3.81,,1247.0,,,,,False,,,,,Male,Hispanic,False,TX,0,False,0,,,6,"[{""school"": ""Cornell"", ""status"": ""rejected""}, {""school"": ""Duke"", ""status"": ""rejected""}, {""school"": ""Northwestern"", ""status"": ""waitlisted""}, {""school"": ""Dartmouth"", ""status"": ""rejected""}, {""school"": ""Princeton"", ""status"": ""rejected""}, {""school"": ""UC Berkeley"", ""status"": ""accepted""}]",True,True,True,372,True,True,False,True,3
demo_000105,collegeresults,Student2581,1752289573,College Results - Weak Profile,/r/collegeresults/comments/demo_105,180,166,Results,3.75,,,,,29.0,,False,,,,,Female,Black,False,PA,0,True,0,,,6,"[{""school"": ""Dartmouth"", ""status"": ""rejected""}, {""school"": ""NYU"", ""status"": ""rejected""}, {""school"": ""Northwestern"", ""status"": ""rejected""}, {""school"": ""MIT"", ""status"": ""rejected""}, {""school"": ""Columbia"", ""status"": ""accepted""}, {""school"": ""Ohio State"", ""status"": ""rejected""}]",True,True,False,367,True,True,False,True,3
demo_000106,collegeresults,Student5911,1737950773,College Results - Weak Profile,/r/collegeresults/comments/demo_106,228,60,Results,3.86,,,,,,,False,,,,,Female,White,False,PA,1,False,0,,,14,"[{""school"": ""Dartmouth"", ""status"": ""accepted""}, {""school"": ""University of Virginia"", ""status"": ""rejected""}, {""school"": ""Notre Dame"", ""status"": ""rejected""}, {""school"": ""University of Michigan"", ""status"": ""rejected""}, {""school"": ""Vanderbilt"", ""status"": ""rejected""}, {""school"": ""Northwestern"", ""status"": ""rejected""}, {""school"": ""Penn State"", ""status"": ""rejected""}, {""school"": ""Georgia Tech"", ""status"": ""rejected""}, {""school"": ""Boston College"", ""status"": ""waitlisted""}, {""school"": ""UC Berkeley"", ""status"": ""accepted""}, {""school"": ""USC"", ""status"": ""rejected""}, {""school"": ""Columbia"", ""status"": ""rejected""}, {""school"": ""Duke"", ""status"": ""rejected""}, {""school"": ""Cornell"", ""status"": ""rejected""}]",True,True,True,571,True,False,False,True,2
demo_000107,collegeresults,Student3502,1746068773,College Results - Average Profile,/r/collegeresults/comments/demo_107,216,91,,3.62,,,,,34.0,,False,,,,,Male,White,False,MA,1,False,0,,,12,"[{""school"": ""UPenn"", ""status"": ""rejected""}, {""school"": ""Harvard"", ""status"": ""waitlisted""}, {""school"": ""Vanderbilt"", ""status"": ""accepted""}, {""school"": ""Georgia Tech"", ""status"": ""waitlisted""}, {""school"": ""Stanford"", ""status"": ""accepted""}, {""school"": ""University of Michigan"", ""status"": ""accepted""}, {""school"": ""NYU"", ""status"": ""accepted""}, {""school"": ""Boston College"", ""status"": ""accepted""}, {""school"": ""Notre Dame"", ""status"": ""rejected""}, {""school"": ""Rice"", ""status"": ""rejected""}, {""school"": ""University of Texas Austin"", ""status"": ""rejected""}, {""school"": ""Penn State"", ""status"": ""rejected""}]",True,True,True,551,True,True,False,True,3
demo_000108,collegeresults,Student4088,1740283573,College Results - Weak Profile,/r/collegeresults/comments/demo_108,214,120,Discussion,3.31,,,,,31.0,,False,,,,,Male,White,False,TX,1,True,0,,,14,"[{""school"": ""Vanderbilt"", ""status"": ""rejected""}, {""school"": ""UCLA"", ""status"": ""rejected""}, {""school"": ""Penn State"", ""status"": ""waitlisted""}, {""school"": ""Boston College"", ""status"": ""rejected""}, {""school"": ""Duke"", ""status"": ""rejected""}, {""school"": ""UNC Chapel Hill"", ""status"": ""rejected""}, {""school"": ""Harvard"", ""status"": ""rejected""}, {""school"": ""Stanford"", ""status"": ""rejected""}, {""school"": ""Princeton"", ""status"": ""rejected""}, {""school"": ""University of Texas Austin"", ""status"": ""rejected""}, {""school"": ""Ohio State"", ""status"": ""rejected""}, {""school"": ""Northwestern"", ""status"": ""rejected""}, {""school"": ""Columbia"", ""status"": ""accepted""}, {""school"": ""University of Michigan"", ""status"": ""rejected""}]",True,True,True,591,True,True,False,True,3
demo_000109,collegeresults,Student4394,1747364773,College Results - Average Profile,/r/collegeresults/comments/demo_109,332,50,Results,3.62,,1377.0,,,,,False,,,,,Male,White,False,NC,1,False,0,,,12,"[{""school"": ""Carnegie Mellon"", ""status"": ""rejected""}, {""school"": ""Duke"", ""status"": ""accepted""}, {""school"": ""Penn State"", ""status"": ""accepted""}, {""school"": ""Boston College"", ""status"": ""accepted""}, {""school"": ""University of Virginia"", ""status"": ""waitlisted""}, {""school"": ""Harvard"", ""status"": ""waitlisted""}, {""school"": ""Cornell"", ""status"": ""rejected""}, {""school"": ""Ohio State"", ""status"": ""accepted""}, {""school"": ""Notre Dame"", ""status"": ""rejected""}, {""school"": ""Princeton"", ""status"": ""waitlisted""}, {""school"": ""University of Texas Austin"", ""status"": ""rejected""}, {""school"": ""Northwestern"", ""status"": ""accepted""}]",True,True,True,557,True,True,False,True,3
demo_000110,collegeresults,Student1532,1755140773,College Results - Weak Profile,/r/collegeresults/comments/demo_110,95,174,,3.48,,,,,,,False,,,,,Female,Black,False,OH,1,True,0,,,5,"[{""school"": ""University of Texas Austin"", ""status"": ""accepted""}, {""school"": ""UC Berkeley"", ""status"": ""rejected""}, {""school"": ""Cornell"", ""status"": ""rejected""}, {""school"": ""Northwestern"", ""status"": ""accepted""}, {""school"": ""UNC Chapel Hill"", ""status"": ""waitlisted""}]",True,True,True,389,True,False,False,True,2
demo_000111,collegeresults,Student4629,1753585573,College Results - Weak Profile,/r/collegeresults/comments/demo_111,96,109,Results,3.78,,,,,28.0,,False,,,,,Female,White,False,FL,1,True,0,,,11,"[{""school"": ""Columbia"", ""status"": ""rejected""}, {""school"": ""Notre Dame"", ""status"": ""accepted""}, {""school"": ""Vanderbilt"", ""status"": ""waitlisted""}, {""school"": ""Northwestern"", ""status"": ""accepted""}, {""school"": ""UNC Chapel Hill"", ""status"": ""rejected""}, {""school"": ""Yale"", ""status"": ""rejected""}, {""school"": ""Princeton"", ""status"": ""rejected""}, {""school"": ""Ohio State"", ""status"": ""rejected""}, {""school"": ""University of Texas Austin"", ""status"": ""rejected""}, {""school"": ""University of Virginia"", ""status"": ""accepted""}, {""school"": ""NYU"", ""status"": ""accepted""}]",True,True,True,505,True,True,False,True,3
demo_000112,collegeresults,Student1887,1758078373,College Results - Strong Profile,/r/collegeresults/comments/demo_112,110,19,Results,3.88,,,,,34.0,,False,,,,,Female,Asian,False,FL,0,False,0,,,7,"[{""school"": ""UNC Chapel Hill"", ""status"": ""accepted""}, {""school"": ""Duke"", ""status"": ""accepted""}, {""school"": ""University of Texas Austin"", ""status"": ""accepted""}, {""school"": ""Vanderbilt"", ""status"": ""accepted""}, {""school"": ""Brown"", ""status"": ""accepted""}, {""school"": ""UPenn"", ""status"": ""waitlisted""}, {""school"": ""Cornell"", ""status"": ""waitlisted""}]",True,False,True,432,True,True,False,True,3
demo_000113,collegeresults,Student6744,1741320373,College Results - Weak Profile,/r/collegeresults/comments/demo_113,376,50,,3.83,,,,,,,False,,,,,Female,Black,False,NY,0,True,0,,,6,"[{""school"": ""Yale"", ""status"": ""rejected""}, {""school"": ""Georgia Tech"", ""status"": ""accepted""}, {""school"": ""Cornell"", ""status"": ""rejected""}, {""school"": ""UPenn"", ""status"": ""rejected""}, {""school"": ""Vanderbilt"", ""status"": ""rejected""}, {""school"": ""Ohio State"", ""status"": ""accepted""}]",True,True,False,367,True,False,False,True,2
demo_000114,collegeresults,Student1395,1759979173,College Results - Strong Profile,/r/collegeresults/comments/demo_114,382,83,Results,3.9,,1594.0,,,,,False,,,,,Male,Hispanic,False,NY,1,True,0,,,9,"[{""school"": ""University of Texas Austin"", ""status"": ""accepted""}, {""school"": ""NYU"", ""status"": ""rejected""}, {""school"": ""UNC Chapel Hill"", ""status"": ""accepted""}, {""school"": ""Harvard"", ""status"": ""waitlisted""}, {""school"": ""Dartmouth"", ""status"": ""accepted""}, {""school"": ""Penn State"", ""status"": ""accepted""}, {""school"": ""Columbia"", ""status"": ""accepted""}, {""school"": ""Duke"", ""status"": ""rejected""}, {""school"": ""UC Berkeley"", ""status"": ""accepted""}]",True,True,True,456,True,True,False,True,3
demo_000115,collegeresults,Student5213,1747796773,College Results - Average Profile,/r/collegeresults/comments/demo_115,22,34,,3.88,,1416.0,,,,,False,,,,,Male,White,False,FL,1,False,0,,,13,"[{""school"": ""Princeton"", ""status"": ""rejected""}, {""school"": ""Ohio State"", ""status"": ""accepted""}, {""school"": ""UCLA"", ""status"": ""accepted""}, {""school"": ""Duke"", ""status"": ""accepted""}, {""school"": ""Cornell"", ""status"": ""waitlisted""}, {""school"": ""Northwestern"", ""status"": ""accepted""}, {""school"": ""Boston College"", ""status"": ""accepted""}, {""school"": ""Dartmouth"", ""status"": ""rejected""}, {""school"": ""UC Berkeley"", ""status"": ""accepted""}, {""school"": ""Georgia Tech"", ""status"": ""accepted""}, {""school"": ""University of Texas Austin"", ""status"": ""accepted""}, {""school"": ""Vanderbilt"", ""status"": ""accepted""}, {""school"": ""Notre Dame"", ""status"": ""rejected""}]",True,True,True,557,True,True,False,True,3
demo_000116,collegeresults,Student5053,1758164773,College Results - Weak Profile,/r/collegeresults/comments/demo_116,386,30,,3.46,,1438.0,,,,,False,,,,,Male,Asian,False,NY,1,False,0,,,11,"[{""school"": ""Penn State"", ""status"": ""accepted""}, {""school"": ""MIT"", ""status"": ""rejected""}, {""school"": ""University of Michigan"", ""status"": ""accepted""}, {""school"": ""Carnegie Mellon"", ""status"": ""rejected""}, {""school"": ""UC Berkeley"", ""status"": ""waitlisted""}, {""school"": ""University of Virginia"", ""status"": ""rejected""}, {""school"": ""Rice"", ""status"": ""accepted""}, {""school"": ""Brown"", ""status"": ""rejected""}, {""school"": ""Columbia"", ""status"": ""accepted""}, {""school"": ""NYU"", ""status"": ""rejected""}, {""school"": ""Boston College"", ""status"": ""rejected""}]",True,True,True,522,True,True,False,True,3
demo_000117,collegeresults,Student4026,1741921573,College Results - Weak Profile,/r/collegeresults/comments/demo_117,45,182,,3.36,,,,,29.0,,False,,,,,Female,Asian,False,IL,0,True,0,,,12,"[{""school"": ""Duke"", ""status"": ""rejected""}, {""school"": ""Cornell"", ""status"": ""rejected""}, {""school"": ""Harvard"", ""status"": ""rejected""}, {""school"": ""Dartmouth"", ""status"": ""accepted""}, {""school"": ""UNC Chapel Hill"", ""status"": ""rejected""}, {""school"": ""Rice"", ""status"": ""rejected""}, {""school"": ""UPenn"", ""status"": ""accepted""}, {""school"": ""Vanderbilt"", ""status"": ""rejected""}, {""school"": ""University of Virginia"", ""status"": ""rejected""}, {""school"": ""Penn State"", ""status"": ""rejected""}, {""school"": ""Northwestern"", ""status"": ""waitlisted""}, {""school"": ""UCLA"", ""status"": ""accepted""}]",True,True,True,509,True,True,False,True,3
demo_000118,collegeresults,Student1348,1758855973,College Results - Weak Profile,/r/collegeresults/comments/demo_118,339,117,,3.5,,1497.0,,,,,False,,,,,Male,Hispanic,False,TX,0,False,0,,,13,"[{""school"": ""Notre Dame"", ""status"": ""accepted""}, {""school"": ""Princeton"", ""status"": ""rejected""}, {""school"": ""Harvard"", ""status"": ""rejected""}, {""school"": ""Ohio State"", ""status"": ""accepted""}, {""school"": ""Vanderbilt"", ""status"": ""accepted""}, {""school"": ""USC"", ""status"": ""rejected""}, {""school"": ""Georgia Tech"", ""status"": ""rejected""}, {""school"": ""Rice"", ""status"": ""rejected""}, {""school"": ""Boston College"", ""status"": ""rejected""}, {""school"": ""MIT"", ""status"": ""rejected""}, {""school"": ""Brown"", ""status"": ""accepted""}, {""school"": ""Dartmouth"", ""status"": ""rejected""}, {""school"": ""Stanford"", ""status"": ""rejected""}]",True,True,False,510,True,True,False,True,3
demo_000119,collegeresults,Student9482,1758078373,College Results - Weak Profile,/r/collegeresults/comments/demo_119,436,168,Discussion,3.69,,1237.0,,,,,False,,,,,Male,Asian,False,NY,1,True,0,,,14,"[{""school"": ""Stanford"", ""status"": ""rejected""}, {""school"": ""Penn State"", ""status"": ""rejected""}, {""school"": ""Rice"", ""status"": ""rejected""}, {""school"": ""UC Berkeley"", ""status"": ""rejected""}, {""school"": ""Ohio State"", ""status"": ""rejected""}, {""school"": ""Notre Dame"", ""status"": ""rejected""}, {""school"": ""University of Virginia"", ""status"": ""accepted""}, {""school"": ""Duke"", ""status"": ""accepted""}, {""school"": ""Harvard"", ""status"": ""rejected""}, {""school"": ""Columbia"", ""status"": ""accepted""}, {""school"": ""UCLA"", ""status"": ""rejected""}, {""school"": ""Cornell"", ""status"": ""accepted""}, {""school"": ""University of Texas Austin"", ""status"": ""waitlisted""}, {""school"": ""UPenn"", ""status"": ""rejected""}]",True,True,True,551,True,True,False,True,3
demo_000120,collegeresults,Student7957,1745982373,College Results - Weak Profile,/r/collegeresults/comments/demo_120,274,73,Discussion,3.59,,1430.0,,,,,False,,,,,Female,Asian,False,NC,0,True,0,,,11,"[{""school"": ""Rice"", ""status"": ""rejected""}, {""school"": ""Duke"", ""status"": ""accepted""}, {""school"": ""Stanford"", ""status"": ""rejected""}, {""school"": ""Columbia"", ""status"": ""rejected""}, {""school"": ""Ohio State"", ""status"": ""accepted""}, {""school"": ""Notre Dame"", ""status"": ""rejected""}, {""school"": ""Penn State"", ""status"": ""rejected""}, {""school"": ""Northwestern"", ""status"": ""waitlisted""}, {""school"": ""Georgia Tech"", ""status"": ""rejected""}, {""school"": ""NYU"", ""status"": ""accepted""}, {""school"": ""Dartmouth"", ""status"": ""rejected""}]",True,True,True,465,True,True,False,True,3
demo_000121,collegeresults,Student7295,1733285173,College Results - Average Profile,/r/collegeresults/comments/demo_121,82,115,Results,3.84,,1593.0,,,,,False,,,,,Male,Hispanic,False,TX,1,True,0,,,5,"[{""school"": ""Duke"", ""status"": ""accepted""}, {""school"": ""Stanford"", ""status"": ""accepted""}, {""school"": ""University of Texas Austin"", ""status"": ""accepted""}, {""school"": ""UCLA"", ""status"": ""rejected""}, {""school"": ""Cornell"", ""status"": ""rejected""}]",True,True,False,372,True,True,False,True,3
demo_000122,collegeresults,Student4499,1750215973,College Results - Average Profile,/r/collegeresults/comments/demo_122,352,76,Discussion,3.72,,,,,32.0,,False,,,,,Female,Black,False,GA,1,False,0,,,9,"[{""school"": ""Princeton"", ""status"": ""accepted""}, {""school"": ""MIT"", ""status"": ""rejected""}, {""school"": ""NYU"", ""status"": ""waitlisted""}, {""school"": ""Harvard"", ""status"": ""rejected""}, {""school"": ""Notre Dame"", ""status"": ""waitlisted""}, {""school"": ""University of Michigan"", ""status"": ""waitlisted""}, {""school"": ""Brown"", ""status"": ""rejected""}, {""school"": ""Vanderbilt"", ""status"": ""rejected""}, {""school"": ""USC"", ""status"": ""rejected""}]",True,True,True,445,True,True,False,True,3
